Timestamp Seconds,timestamp,gse1_v,gse1_i,gse1_w,ter_v,ter_i,te1_v,te1_i,batt_v,batt_i,batt_adc,temp (f),temp,pressure (atm),pressure,humidity,accel_x,accel_y,accel_z,x g's,y g's,z g's,te1,ter,te2,te3,batt,inhib1,inhib2,inhib3,pharos_pos,atlas_pos,servo_angle,pharos_moving,atlas_moving
2.839,2839,30.536,0.585,17.86356,0,-0.001,0,-0.004,0,-0.001,0.524,73.328,22.96,1.007860054,102121.42,56.19,0,0,0,0,0,0,0,0,0,0,0,0,0,0,0,0,135,0,0
3.33,3330,30.536,0.585,17.86356,0,-0.001,0,-0.004,0,-0.001,0.524,73.328,22.96,1.007860054,102121.42,56.19,0,0,0,0,0,0,0,0,0,0,0,0,0,0,0,0,135,0,0
3.83,3830,29.994,1.11,33.29334,0,-0.001,0,0.003,0,0,0.524,73.418,23.01,1.007884925,102123.94,56.17,1.109,-9.727,1.84,-0.1131632653,0.9925510204,-0.187755102,0,0,0,0,0,0,0,0,0,0,135,0,0
4.33,4330,29.964,1.114,33.379896,0,0,0,0,0,0.002,0.524,73.454,23.03,1.007924007,102127.9,56.16,1.109,-9.688,1.879,-0.1131632653,0.9885714286,-0.1917346939,0,0,0,0,0,0,0,0,0,0,135,0,0
4.83,4830,29.965,1.105,33.111325,0,-0.001,0,-0.001,0,-0.003,0.524,73.49,23.05,1.007942956,102129.82,56.13,1.109,-9.727,1.84,-0.1131632653,0.9925510204,-0.187755102,0,0,0,0,0,0,0,0,0,0,135,0,0
5.33,5330,29.994,1.067,32.003598,0,0,0,-0.003,0,-0.001,0.524,73.49,23.05,1.007985788,102134.16,56.12,1.074,-9.73,1.801,-0.1095918367,0.9928571429,-0.1837755102,0,0,0,0,0,0,0,0,0,0,135,0,0
5.859,5859,30.011,1.047,31.421517,0,0,0,0.002,0,0,0.526,73.508,23.06,1.008025068,102138.14,56.14,1.074,-9.652,1.762,-0.1095918367,0.9848979592,-0.1797959184,0,0,0,0,0,0,0,0,0,0,135,0,0
6.33,6330,30.011,1.047,31.421517,0,0,0,0.002,0,0,0.526,73.508,23.06,1.008025068,102138.14,56.14,1.074,-9.652,1.762,-0.1095918367,0.9848979592,-0.1797959184,0,0,0,0,0,0,0,0,0,0,135,0,0
6.83,6830,29.948,1.102,33.002696,0,0,0,-0.001,0,-0.001,0.524,73.526,23.07,1.008083395,102144.05,56.14,1.109,-9.688,1.84,-0.1131632653,0.9885714286,-0.187755102,0,0,0,0,0,0,0,0,0,0,135,0,0
7.33,7330,29.896,1.133,33.872168,0,0,0,-0.001,0,-0.001,0.524,73.544,23.08,1.008149519,102150.75,56.15,1.148,-9.727,1.84,-0.1171428571,0.9925510204,-0.187755102,0,0,0,0,0,0,0,0,0,0,135,0,0
7.83,7830,29.709,1.275,37.878975,0,-0.003,0,-0.003,0,-0.003,0.524,73.562,23.09,1.008214853,102157.37,56.19,1.109,-9.688,1.84,-0.1131632653,0.9885714286,-0.187755102,0,0,0,0,0,0,0,0,0,0,135,0,0
8.33,8330,29.778,1.343,39.991854,0,-0.001,0,-0.003,0,-0.001,0.524,73.562,23.09,1.008193733,102155.23,56.22,1.109,-9.691,1.801,-0.1131632653,0.988877551,-0.1837755102,0,0,0,0,0,0,0,0,0,0,135,0,0
8.839,8839,29.631,1.277,37.838787,0,-0.001,0,0,0,-0.001,0.524,73.562,23.09,1.008287491,102164.73,56.27,1.074,-9.73,1.801,-0.1095918367,0.9928571429,-0.1837755102,0,0,0,0,0,0,0,0,0,0,135,0,0
9.33,9330,29.631,1.277,37.838787,0,-0.001,0,0,0,-0.001,0.524,73.562,23.09,1.008287491,102164.73,56.27,1.074,-9.73,1.801,-0.1095918367,0.9928571429,-0.1837755102,0,0,0,0,0,0,0,0,0,0,135,0,0
9.83,9830,29.75,1.243,36.97925,0,-0.003,0,-0.005,0,0,0.524,73.58,23.1,1.008262226,102162.17,56.29,1.074,-9.73,1.801,-0.1095918367,0.9928571429,-0.1837755102,0,0,0,0,0,0,0,0,0,0,135,0,0
10.33,10330,29.695,1.365,40.533675,0,0,0,-0.004,0,-0.003,0.526,73.58,23.1,1.008367925,102172.88,56.34,1.109,-9.691,1.801,-0.1131632653,0.988877551,-0.1837755102,0,0,0,0,0,0,0,0,0,0,135,0,0
10.83,10830,29.702,1.279,37.988858,0,-0.001,0,-0.006,0,0,0.524,73.598,23.11,1.00840227,102176.36,56.38,1.109,-9.727,1.84,-0.1131632653,0.9925510204,-0.187755102,0,0,0,0,0,0,0,0,0,0,135,0,0
11.33,11330,29.669,1.238,36.730222,0,-0.001,0,0.003,0,-0.001,0.524,73.616,23.12,1.008474907,102183.72,56.43,1.109,-9.727,1.879,-0.1131632653,0.9925510204,-0.1917346939,0,0,0,0,0,0,0,0,0,0,135,0,0
11.858,11858,29.581,1.342,39.697702,0,-0.003,0,-0.001,0,0,0.524,73.616,23.12,1.008508167,102187.09,56.47,1.074,-9.727,1.762,-0.1095918367,0.9925510204,-0.1797959184,0,0,0,0,0,0,0,0,0,0,135,0,0
12.33,12330,29.581,1.342,39.697702,0,-0.003,0,-0.001,0,0,0.524,73.616,23.12,1.008508167,102187.09,56.47,1.074,-9.727,1.762,-0.1095918367,0.9925510204,-0.1797959184,0,0,0,0,0,0,0,0,0,0,135,0,0
12.83,12830,29.625,1.335,39.549375,0,-0.003,0,-0.001,0,-0.001,0.526,73.634,23.13,1.008573698,102193.73,56.51,1.109,-9.652,1.84,-0.1131632653,0.9848979592,-0.187755102,0,0,0,0,0,0,0,0,0,0,135,0,0
13.33,13330,29.763,1.218,36.251334,0,-0.003,0,-0.004,0,-0.001,0.526,73.652,23.14,1.008572613,102193.62,56.54,1.074,-9.727,1.84,-0.1095918367,0.9925510204,-0.187755102,0,0,0,0,0,0,0,0,0,0,135,0,0
13.83,13830,29.74,1.205,35.8367,0,-0.001,0,-0.004,0,0,0.526,73.67,23.15,1.008664693,102202.95,56.59,1.074,-9.688,1.84,-0.1095918367,0.9885714286,-0.187755102,0,0,0,0,0,0,0,0,0,0,135,0,0
14.33,14330,29.585,1.514,44.79169,0,-0.001,0,-0.001,0,0,0.526,73.67,23.15,1.008698939,102206.42,56.63,1.148,-9.73,1.801,-0.1171428571,0.9928571429,-0.1837755102,0,0,0,0,0,0,0,0,0,0,135,0,0
14.839,14839,29.726,1.157,34.392982,0,-0.001,0,0.002,0,-0.003,0.526,73.67,23.15,1.008727362,102209.3,56.67,1.074,-9.727,1.84,-0.1095918367,0.9925510204,-0.187755102,0,0,0,0,0,0,0,0,0,0,135,0,0
15.33,15330,29.726,1.157,34.392982,0,-0.001,0,0.002,0,-0.003,0.526,73.67,23.15,1.008727362,102209.3,56.67,1.074,-9.727,1.84,-0.1095918367,0.9925510204,-0.187755102,0,0,0,0,0,0,0,0,0,0,135,0,0
15.83,15830,29.778,1.135,33.79803,0,-0.004,0,-0.005,0,0,0.526,73.688,23.16,1.008766445,102213.26,56.71,1.109,-9.688,1.84,-0.1131632653,0.9885714286,-0.187755102,0,0,0,0,0,0,0,0,0,0,135,0,0
16.33,16330,29.558,1.243,36.740594,0,-0.003,0,-0.003,0,-0.001,0.526,73.706,23.17,1.008798421,102216.5,56.74,1.109,-9.691,1.801,-0.1131632653,0.988877551,-0.1837755102,0,0,0,0,0,0,0,0,0,0,135,0,0
16.83,16830,29.907,0.989,29.578023,0,-0.003,0,-0.003,0,-0.001,0.526,73.706,23.17,1.008903824,102227.18,56.77,1.109,-9.727,1.84,-0.1131632653,0.9925510204,-0.187755102,0,0,0,0,0,0,0,0,0,0,135,0,0
17.33,17330,29.907,1.007,30.116349,0,-0.003,0,-0.004,0,0,0.526,73.742,23.19,1.008913595,102228.17,56.82,1.109,-9.652,1.84,-0.1131632653,0.9848979592,-0.187755102,0,0,0,0,0,0,0,0,0,0,135,0,0
17.86,17860,29.904,1.013,30.292752,0,-0.004,0,-0.001,0,-0.001,0.526,73.742,23.19,1.008976363,102234.53,56.83,1.074,-9.691,1.914,-0.1095918367,0.988877551,-0.1953061224,0,0,0,0,0,0,0,0,0,0,135,0,0
18.33,18330,29.904,1.013,30.292752,0,-0.004,0,-0.001,0,-0.001,0.526,73.742,23.19,1.008976363,102234.53,56.83,1.074,-9.691,1.914,-0.1095918367,0.988877551,-0.1953061224,0,0,0,0,0,0,0,0,0,0,135,0,0
18.83,18830,29.9,1.012,30.2588,0,-0.001,0,-0.001,0,-0.001,0.526,73.76,23.2,1.008998865,102236.81,56.86,1.074,-9.688,1.84,-0.1095918367,0.9885714286,-0.187755102,0,0,0,0,0,0,0,0,0,0,135,0,0
19.33,19330,29.905,1.004,30.02462,0,-0.004,0,-0.006,0,0,0.526,73.76,23.2,1.009051764,102242.17,56.88,1.148,-9.691,1.801,-0.1171428571,0.988877551,-0.1837755102,0,0,0,0,0,0,0,0,0,0,135,0,0
19.83,19830,29.879,1,29.879,0,-0.003,0,-0.001,0,-0.001,0.526,73.778,23.21,1.009090945,102246.14,56.91,1.148,-9.73,1.801,-0.1171428571,0.9928571429,-0.1837755102,0,0,0,0,0,0,0,0,0,0,135,0,0
20.33,20330,29.876,0.988,29.517488,0,-0.001,0,-0.005,0,-0.001,0.526,73.778,23.21,1.009125981,102249.69,56.93,1.109,-9.727,1.84,-0.1131632653,0.9925510204,-0.187755102,0,0,0,0,0,0,0,0,0,0,135,0,0
20.839,20839,29.904,0.993,29.694672,0,-0.003,0,-0.005,0,0,0.526,73.796,23.22,1.009155983,102252.73,56.97,1.109,-9.688,1.879,-0.1131632653,0.9885714286,-0.1917346939,0,0,0,0,0,0,0,0,0,0,135,0,0
21.33,21330,29.904,0.993,29.694672,0,-0.003,0,-0.005,0,0,0.526,73.796,23.22,1.009155983,102252.73,56.97,1.109,-9.688,1.879,-0.1131632653,0.9885714286,-0.1917346939,0,0,0,0,0,0,0,0,0,0,135,0,0
21.83,21830,29.903,1.003,29.992709,0,-0.003,0,-0.009,0,-0.001,0.526,73.814,23.23,1.009192006,102256.38,57,1.074,-9.688,1.84,-0.1095918367,0.9885714286,-0.187755102,0,0,0,0,0,0,0,0,0,0,135,0,0
22.33,22330,29.9,0.984,29.4216,0.001,-0.004,0,-0.005,0,0,0.526,73.832,23.24,1.009264051,102263.68,57.02,1.109,-9.688,1.84,-0.1131632653,0.9885714286,-0.187755102,0,0,0,0,0,0,0,0,0,0,135,0,0
22.83,22830,29.819,1.032,30.773208,0.001,-0.003,0,-0.008,0,0,0.526,73.814,23.23,1.009266716,102263.95,57.05,1.074,-9.727,1.879,-0.1095918367,0.9925510204,-0.1917346939,0,0,0,0,0,0,0,0,0,0,135,0,0
23.33,23330,29.886,0.997,29.796342,0,-0.003,0,-0.004,0,-0.001,0.526,73.85,23.25,1.009334123,102270.78,57.08,1.074,-9.691,1.801,-0.1095918367,0.988877551,-0.1837755102,0,0,0,0,0,0,0,0,0,0,135,0,0
23.859,23859,29.885,0.993,29.675805,0.001,-0.004,0,-0.008,0,-0.001,0.526,73.85,23.25,1.009373501,102274.77,57.1,1.035,-9.691,1.879,-0.1056122449,0.988877551,-0.1917346939,0,0,0,0,0,0,0,0,0,0,135,0,0
24.33,24330,29.885,0.993,29.675805,0.001,-0.004,0,-0.008,0,-0.001,0.526,73.85,23.25,1.009373501,102274.77,57.1,1.035,-9.691,1.879,-0.1056122449,0.988877551,-0.1917346939,0,0,0,0,0,0,0,0,0,0,135,0,0
24.83,24830,29.871,0.997,29.781387,0,-0.003,0,-0.008,0,-0.001,0.526,73.868,23.26,1.009421268,102279.61,57.12,1.074,-9.691,1.801,-0.1095918367,0.988877551,-0.1837755102,0,0,0,0,0,0,0,0,0,0,135,0,0
25.33,25330,29.882,0.988,29.523416,0,-0.004,0,-0.005,0,-0.001,0.526,73.886,23.27,1.009445349,102282.05,57.16,1.109,-9.691,1.801,-0.1131632653,0.988877551,-0.1837755102,0,0,0,0,0,0,0,0,0,0,135,0,0
25.83,25830,29.882,0.967,28.895894,0.001,-0.003,0,-0.01,0,0,0.526,73.886,23.27,1.009471305,102284.68,57.19,1.109,-9.691,1.801,-0.1131632653,0.988877551,-0.1837755102,0,0,0,0,0,0,0,0,0,0,135,0,0
26.33,26330,29.88,0.998,29.82024,0.001,-0.004,0,-0.004,0,0,0.526,73.904,23.28,1.009512855,102288.89,57.22,1.148,-9.688,1.84,-0.1171428571,0.9885714286,-0.187755102,0,0,0,0,0,0,0,0,0,0,135,0,0
26.839,26839,29.88,0.988,29.52144,0,-0.004,0,-0.009,0,-0.001,0.526,73.922,23.29,1.009549864,102292.64,57.25,1.074,-9.688,1.84,-0.1095918367,0.9885714286,-0.187755102,0,0,0,0,0,0,0,0,0,0,135,0,0
27.33,27330,29.88,0.988,29.52144,0,-0.004,0,-0.009,0,-0.001,0.526,73.922,23.29,1.009549864,102292.64,57.25,1.074,-9.688,1.84,-0.1095918367,0.9885714286,-0.187755102,0,0,0,0,0,0,0,0,0,0,135,0,0
27.83,27830,29.865,0.988,29.50662,0.002,-0.003,0,-0.004,0,0,0.526,73.94,23.3,1.009570392,102294.72,57.23,1.074,-9.688,1.84,-0.1095918367,0.9885714286,-0.187755102,0,0,0,0,0,0,0,0,0,0,135,0,0
28.33,28330,29.854,1.019,30.421226,0.001,-0.004,0,-0.009,0,0,0.528,73.958,23.31,1.009659215,102303.72,57.3,1.109,-9.691,1.801,-0.1131632653,0.988877551,-0.1837755102,0,0,0,0,0,0,0,0,0,0,135,0,0
28.83,28830,29.586,1.273,37.662978,0,-0.003,0,-0.009,0,-0.001,0.528,73.976,23.32,1.009684974,102306.33,57.32,1.074,-9.688,1.84,-0.1095918367,0.9885714286,-0.187755102,0,0,0,0,0,0,0,0,0,0,135,0,0
29.33,29330,29.785,1.079,32.138015,0.001,-0.004,0,-0.01,0,-0.003,0.528,73.976,23.32,1.009713595,102309.23,57.35,1.074,-9.727,1.84,-0.1095918367,0.9925510204,-0.187755102,0,0,0,0,0,0,0,0,0,0,135,0,0
29.859,29859,29.831,0.99,29.53269,0.001,-0.004,0,-0.006,0,-0.001,0.528,73.994,23.33,1.009796299,102317.61,57.38,1.109,-9.688,1.84,-0.1131632653,0.9885714286,-0.187755102,0,0,0,0,0,0,0,0,0,0,135,0,0
30.33,30330,29.831,0.99,29.53269,0.001,-0.004,0,-0.006,0,-0.001,0.528,73.994,23.33,1.009796299,102317.61,57.38,1.109,-9.688,1.84,-0.1131632653,0.9885714286,-0.187755102,0,0,0,0,0,0,0,0,0,0,135,0,0
30.83,30830,29.804,1.008,30.042432,0.001,-0.004,0,-0.006,0,0,0.528,74.012,23.34,1.009778732,102315.83,57.42,1.074,-9.688,1.762,-0.1095918367,0.9885714286,-0.1797959184,0,0,0,0,0,0,0,0,0,0,135,0,0
31.33,31330,29.711,1.125,33.424875,0.002,-0.004,0,-0.009,0,0,0.528,74.012,23.34,1.009859067,102323.97,57.43,1.035,-9.688,1.801,-0.1056122449,0.9885714286,-0.1837755102,0,0,0,0,0,0,0,0,0,0,135,0,0
31.83,31830,29.911,0.904,27.039544,0,-0.003,0,-0.014,0,-0.001,0.528,74.03,23.35,1.009918283,102329.97,57.46,1.109,-9.652,1.879,-0.1131632653,0.9848979592,-0.1917346939,0,0,0,0,0,0,0,0,0,0,135,0,0
32.33,32330,29.871,0.937,27.989127,0.001,-0.004,0,-0.011,0,0,0.528,74.048,23.36,1.009951937,102333.38,57.47,1.074,-9.691,1.801,-0.1095918367,0.988877551,-0.1837755102,0,0,0,0,0,0,0,0,0,0,135,0,0
32.83,32830,29.61,1.272,37.66392,0.002,-0.003,0,-0.008,0,0,0.528,74.066,23.37,1.009997631,102338.01,57.51,1.074,-9.727,1.879,-0.1095918367,0.9925510204,-0.1917346939,0,0,0,0,0,0,0,0,0,0,135,0,0
33.33,33330,29.821,0.989,29.492969,0.002,-0.004,0,-0.009,0,-0.001,0.528,74.084,23.38,1.010019541,102340.23,57.54,1.109,-9.688,1.84,-0.1131632653,0.9885714286,-0.187755102,0,0,0,0,0,0,0,0,0,0,135,0,0
33.83,33830,29.904,0.94,28.10976,0.002,-0.005,0,-0.006,0,-0.001,0.528,74.084,23.38,1.010043622,102342.67,57.53,1.035,-9.691,1.762,-0.1056122449,0.988877551,-0.1797959184,0,0,0,0,0,0,0,0,0,0,135,0,0
34.33,34330,29.911,0.883,26.411413,0.001,-0.003,0.001,-0.011,0,0,0.528,74.12,23.4,1.01010639,102349.03,57.58,1.035,-9.688,1.801,-0.1056122449,0.9885714286,-0.1837755102,0,0,0,0,0,0,0,0,0,0,135,0,0
34.83,34830,29.468,1.415,41.69722,0.001,-0.004,0,-0.011,0,0,0.528,74.12,23.4,1.01014715,102353.16,57.59,1.074,-9.688,1.84,-0.1095918367,0.9885714286,-0.187755102,0,0,0,0,0,0,0,0,0,0,135,0,0
35.33,35330,29.468,1.415,41.69722,0.001,-0.004,0,-0.011,0,0,0.528,74.12,23.4,1.01014715,102353.16,57.59,1.074,-9.688,1.84,-0.1095918367,0.9885714286,-0.187755102,0,0,0,0,0,0,0,0,0,0,135,0,0
35.83,35830,29.38,1.402,41.19076,0.001,-0.005,0,-0.013,0,-0.001,0.528,74.138,23.41,1.010160572,102354.52,57.63,1.074,-9.688,1.84,-0.1095918367,0.9885714286,-0.187755102,0,0,0,0,0,0,0,0,0,0,135,0,0
36.33,36330,29.256,1.714,50.144784,0.002,-0.005,0,-0.011,0,-0.001,0.528,74.156,23.42,1.010203109,102358.83,57.65,1.148,-9.73,1.801,-0.1171428571,0.9928571429,-0.1837755102,0,0,0,0,0,0,0,0,0,0,135,0,0
36.83,36830,29.071,1.808,52.560368,0.002,-0.005,0,-0.016,0,0.002,0.528,74.174,23.43,1.010268443,102365.45,57.66,1.035,-9.648,1.84,-0.1056122449,0.9844897959,-0.187755102,0,0,0,0,0,0,0,0,0,0,135,0,0
37.33,37330,29.245,1.612,47.14294,0.002,-0.004,0,-0.014,0,-0.001,0.528,74.192,23.44,1.010299136,102368.56,57.65,1.074,-9.688,1.84,-0.1095918367,0.9885714286,-0.187755102,0,0,0,0,0,0,0,0,0,0,135,0,0
37.831,37831,29.166,1.727,50.369682,0.001,-0.005,0.001,-0.014,0,0,0.528,74.228,23.46,1.010387861,102377.55,57.7,1.109,-9.688,1.84,-0.1131632653,0.9885714286,-0.187755102,0,0,0,0,0,0,0,0,0,0,135,0,0
38.331,38331,29.166,1.727,50.369682,0.001,-0.005,0.001,-0.014,0,0,0.528,74.228,23.46,1.010387861,102377.55,57.7,1.109,-9.688,1.84,-0.1131632653,0.9885714286,-0.187755102,0,0,0,0,0,0,0,0,0,0,135,0,0
38.831,38831,29.069,1.617,47.004573,0.002,-0.005,0,-0.014,0,-0.003,0.528,74.228,23.46,1.010420627,102380.87,57.73,1.074,-9.691,1.801,-0.1095918367,0.988877551,-0.1837755102,0,0,0,0,0,0,0,0,0,0,135,0,0
39.331,39331,29.198,1.485,43.35903,0.002,-0.004,0,-0.014,0,0,0.528,74.246,23.47,1.010460498,102384.91,57.7,1.074,-9.691,1.801,-0.1095918367,0.988877551,-0.1837755102,0,0,0,0,0,0,0,0,0,0,135,0,0
39.831,39831,29.396,1.403,41.242588,0.004,-0.005,0,-0.01,0,-0.001,0.528,74.264,23.48,1.010496521,102388.56,57.76,1.074,-9.73,1.801,-0.1095918367,0.9928571429,-0.1837755102,0,0,0,0,0,0,0,0,0,0,135,0,0
40.331,40331,29.185,1.654,48.27199,0.002,-0.004,0.004,-0.013,0,-0.004,0.528,74.282,23.49,1.010586825,102397.71,57.77,1.074,-9.688,1.879,-0.1095918367,0.9885714286,-0.1917346939,0,0,0,0,0,0,0,0,0,0,135,0,0
40.831,40831,29.38,1.528,44.89264,0.002,-0.006,0,-0.016,0,0,0.528,74.3,23.5,1.010625315,102401.61,57.79,1.074,-9.691,1.801,-0.1095918367,0.988877551,-0.1837755102,0,0,0,0,0,0,0,0,0,0,135,0,0
41.331,41331,29.17,1.603,46.75951,0.002,-0.005,0.001,-0.009,0,-0.001,0.528,74.336,23.52,1.010685517,102407.71,57.81,1.035,-9.691,1.84,-0.1056122449,0.988877551,-0.187755102,0,0,0,0,0,0,0,0,0,0,135,0,0
41.831,41831,29.17,1.603,46.75951,0.002,-0.005,0.001,-0.009,0,-0.001,0.528,74.336,23.52,1.010685517,102407.71,57.81,1.035,-9.691,1.84,-0.1056122449,0.988877551,-0.187755102,0,0,0,0,0,0,0,0,0,0,135,0,0
42.331,42331,29.134,1.647,47.983698,0.004,-0.005,0.002,-0.014,0,-0.001,0.528,74.354,23.53,1.010746706,102413.91,57.82,1.109,-9.688,1.84,-0.1131632653,0.9885714286,-0.187755102,0,0,0,0,0,0,0,0,0,0,135,0,0
42.831,42831,29.16,1.552,45.25632,0.005,-0.005,0.001,-0.01,0,-0.001,0.528,74.372,23.54,1.010811547,102420.48,57.85,1.074,-9.688,1.84,-0.1095918367,0.9885714286,-0.187755102,0,0,0,0,0,0,0,0,0,0,135,0,0
43.331,43331,29.124,1.645,47.90898,0.004,-0.006,0,-0.015,0,0,0.528,74.408,23.56,1.010848162,102424.19,57.86,0.996,-9.688,1.801,-0.1016326531,0.9885714286,-0.1837755102,0,0,0,0,0,0,0,0,0,0,135,0,0
43.831,43831,29.065,1.622,47.14343,0.004,-0.006,0.001,-0.014,0,0,0.528,74.444,23.58,1.011045941,102444.23,57.86,1.109,-9.652,1.879,-0.1131632653,0.9848979592,-0.1917346939,0,0,0,0,0,0,0,0,0,0,135,0,0
44.331,44331,29.038,1.64,47.62232,0.004,-0.005,0.001,-0.011,0,-0.001,0.528,74.462,23.59,1.011268789,102466.81,57.89,1.074,-9.73,1.801,-0.1095918367,0.9928571429,-0.1837755102,0,0,0,0,0,0,0,0,0,0,135,0,0
44.831,44831,29.038,1.64,47.62232,0.004,-0.005,0.001,-0.011,0,-0.001,0.528,74.462,23.59,1.011268789,102466.81,57.89,1.074,-9.73,1.801,-0.1095918367,0.9928571429,-0.1837755102,0,0,0,0,0,0,0,0,0,0,135,0,0
45.331,45331,29.209,1.547,45.186323,0.004,-0.004,0.001,-0.016,0,-0.001,0.528,74.48,23.6,1.011402023,102480.31,57.91,1.109,-9.727,1.84,-0.1131632653,0.9925510204,-0.187755102,0,0,0,0,0,0,0,0,0,0,135,0,0
45.831,45831,29.129,1.594,46.431626,0.004,-0.004,0,-0.014,0,0,0.528,74.516,23.62,1.011496768,102489.91,57.94,1.074,-9.691,1.801,-0.1095918367,0.988877551,-0.1837755102,0,0,0,0,0,0,0,0,0,0,135,0,0
46.331,46331,29.184,1.677,48.941568,0.004,-0.004,0,-0.015,0,-0.001,0.528,74.516,23.62,1.011566149,102496.94,57.95,1.109,-9.691,1.801,-0.1131632653,0.988877551,-0.1837755102,0,0,0,0,0,0,0,0,0,0,135,0,0
46.831,46831,28.86,1.727,49.84122,0.005,-0.005,0,-0.018,0,-0.001,0.528,74.57,23.65,1.011616087,102502,57.95,1.109,-9.688,1.762,-0.1131632653,0.9885714286,-0.1797959184,0,0,0,0,0,0,0,0,0,0,135,0,0
47.332,47332,29.003,1.71,49.59513,0.004,-0.006,0,-0.016,0,-0.001,0.528,74.588,23.66,1.011697311,102510.23,57.99,1.074,-9.652,1.84,-0.1095918367,0.9848979592,-0.187755102,0,0,0,0,0,0,0,0,0,0,135,0,0
47.832,47832,29.164,1.618,47.187352,0.005,-0.005,0,-0.014,0,-0.003,0.528,74.588,23.66,1.011769257,102517.52,57.99,1.074,-9.691,1.801,-0.1095918367,0.988877551,-0.1837755102,0,0,0,0,0,0,0,0,0,0,135,0,0
48.332,48332,29.164,1.618,47.187352,0.005,-0.005,0,-0.014,0,-0.003,0.528,74.588,23.66,1.011769257,102517.52,57.99,1.074,-9.691,1.801,-0.1095918367,0.988877551,-0.1837755102,0,0,0,0,0,0,0,0,0,0,135,0,0
48.832,48832,29.108,1.6,46.5728,0.005,-0.005,0.002,-0.018,0,-0.001,0.528,74.624,23.68,1.011842882,102524.98,58.01,1.074,-9.688,1.84,-0.1095918367,0.9885714286,-0.187755102,0,0,0,0,0,0,0,0,0,0,135,0,0
49.332,49332,29.039,1.742,50.585938,0.004,-0.005,0.002,-0.019,0,-0.001,0.528,74.624,23.68,1.011887984,102529.55,58.01,1.074,-9.652,1.84,-0.1095918367,0.9848979592,-0.187755102,0,0,0,0,0,0,0,0,0,0,135,0,0
49.832,49832,28.931,1.712,49.529872,0.005,-0.005,0.001,-0.014,0,-0.003,0.528,74.66,23.7,1.011965754,102537.43,58.04,1.074,-9.652,1.879,-0.1095918367,0.9848979592,-0.1917346939,0,0,0,0,0,0,0,0,0,0,135,0,0
50.332,50332,29.111,1.593,46.373823,0.005,-0.005,0.002,-0.016,0,-0.003,0.528,74.678,23.71,1.012016876,102542.61,58.06,1.074,-9.691,1.801,-0.1095918367,0.988877551,-0.1837755102,0,0,0,0,0,0,0,0,0,0,135,0,0
50.832,50832,29.074,1.644,47.797656,0.005,-0.004,0.002,-0.019,0,-0.003,0.528,74.696,23.72,1.012057143,102546.69,58.08,1.074,-9.691,1.801,-0.1095918367,0.988877551,-0.1837755102,0,0,0,0,0,0,0,0,0,0,135,0,0
51.332,51332,29.074,1.644,47.797656,0.005,-0.004,0.002,-0.019,0,-0.003,0.528,74.696,23.72,1.012057143,102546.69,58.08,1.074,-9.691,1.801,-0.1095918367,0.988877551,-0.1837755102,0,0,0,0,0,0,0,0,0,0,135,0,0
51.832,51832,29.015,1.655,48.019825,0.005,-0.006,0.002,-0.015,0,0,0.528,74.75,23.75,1.012165803,102557.7,58.08,1.109,-9.688,1.879,-0.1131632653,0.9885714286,-0.1917346939,0,0,0,0,0,0,0,0,0,0,135,0,0
52.332,52332,29.066,1.693,49.208738,0.006,-0.006,0.002,-0.018,0,0,0.528,74.768,23.76,1.012242981,102565.52,58.09,1.035,-9.688,1.801,-0.1056122449,0.9885714286,-0.1837755102,0,0,0,0,0,0,0,0,0,0,135,0,0
52.832,52832,29.16,1.603,46.74348,0.005,-0.005,0.002,-0.019,0,0,0.528,74.786,23.77,1.012329632,102574.3,58.09,1.109,-9.688,1.84,-0.1131632653,0.9885714286,-0.187755102,0,0,0,0,0,0,0,0,0,0,135,0,0
53.332,53332,29.066,1.578,45.866148,0.005,-0.006,0.002,-0.02,0,0,0.528,74.804,23.78,1.012395954,102581.02,58.1,1.074,-9.688,1.84,-0.1095918367,0.9885714286,-0.187755102,0,0,0,0,0,0,0,0,0,0,135,0,0
53.832,53832,29.458,1.374,40.475292,0.005,-0.006,0.001,-0.02,0,-0.001,0.528,74.84,23.8,1.012455169,102587.02,58.07,1.074,-9.688,1.879,-0.1095918367,0.9885714286,-0.1917346939,0,0,0,0,0,0,0,0,0,0,135,0,0
54.34,54340,29.081,1.718,49.961158,0.006,-0.006,0.001,-0.021,0,-0.001,0.528,74.858,23.81,1.012501554,102591.72,58.12,1.035,-9.688,1.801,-0.1056122449,0.9885714286,-0.1837755102,0,0,0,0,0,0,0,0,0,0,135,0,0
54.84,54840,29.104,1.504,43.772416,0.006,-0.006,0.002,-0.019,0,-0.003,0.528,74.894,23.83,1.01254261,102595.88,58.14,1.035,-9.688,1.801,-0.1056122449,0.9885714286,-0.1837755102,0,0,0,0,0,0,0,0,0,0,135,0,0
55.34,55340,29.104,1.504,43.772416,0.006,-0.006,0.002,-0.019,0,-0.003,0.528,74.894,23.83,1.01254261,102595.88,58.14,1.035,-9.688,1.801,-0.1056122449,0.9885714286,-0.1837755102,0,0,0,0,0,0,0,0,0,0,135,0,0
55.84,55840,29.216,1.203,35.146848,0.005,-0.006,0.001,-0.02,0,-0.001,0.528,74.93,23.85,1.012640513,102605.8,58.14,1.035,-9.691,1.84,-0.1056122449,0.988877551,-0.187755102,0,0,0,0,0,0,0,0,0,0,135,0,0
56.34,56340,29.59,0.998,29.53082,0.006,-0.006,0.002,-0.019,0,-0.001,0.528,74.966,23.87,1.012671897,102608.98,58.15,1.074,-9.727,1.879,-0.1095918367,0.9925510204,-0.1917346939,0,0,0,0,0,0,0,0,0,0,135,0,0
56.84,56840,29.499,1.154,34.041846,0.006,-0.006,0.001,-0.019,0,-0.001,0.528,74.984,23.88,1.012745621,102616.45,58.17,1.074,-9.652,1.84,-0.1095918367,0.9848979592,-0.187755102,0,0,0,0,0,0,0,0,0,0,135,0,0
57.34,57340,29.5,1.157,34.1315,0.006,-0.006,0.001,-0.019,0,-0.001,0.528,75.02,23.9,1.012607747,102602.48,58.16,1.035,-9.648,1.879,-0.1056122449,0.9844897959,-0.1917346939,0,0,0,0,0,0,0,0,0,0,135,0,0
57.84,57840,29.091,1.552,45.149232,0.005,-0.008,0.002,-0.021,0,-0.001,0.528,75.056,23.92,1.01254794,102596.42,58.15,1.035,-9.691,1.84,-0.1056122449,0.988877551,-0.187755102,0,0,0,0,0,0,0,0,0,0,135,0,0
58.34,58340,29.091,1.552,45.149232,0.005,-0.008,0.002,-0.021,0,-0.001,0.528,75.056,23.92,1.01254794,102596.42,58.15,1.035,-9.691,1.84,-0.1056122449,0.988877551,-0.187755102,0,0,0,0,0,0,0,0,0,0,135,0,0
58.84,58840,29.141,1.565,45.605665,0.006,-0.006,0.001,-0.023,0,-0.001,0.53,75.074,23.93,1.012536788,102595.29,58.17,1.035,-9.691,1.84,-0.1056122449,0.988877551,-0.187755102,0,0,0,0,0,0,0,0,0,0,135,0,0
59.34,59340,29.184,1.419,41.412096,0.005,-0.006,0.002,-0.021,0,-0.004,0.53,75.11,23.95,1.012550604,102596.69,58.17,1.035,-9.727,1.801,-0.1056122449,0.9925510204,-0.1837755102,0,0,0,0,0,0,0,0,0,0,135,0,0
59.84,59840,29.339,1.173,34.414647,0.006,-0.006,0.002,-0.021,0,-0.001,0.528,75.128,23.96,1.012806316,102622.6,58.17,1.074,-9.688,1.762,-0.1095918367,0.9885714286,-0.1797959184,0,0,0,0,0,0,0,0,0,0,135,0,0
60.34,60340,29.493,1.065,31.410045,0.006,-0.006,0.001,-0.024,0,-0.003,0.528,75.146,23.97,1.01291547,102633.66,58.16,1.074,-9.688,1.879,-0.1095918367,0.9885714286,-0.1917346939,0,0,0,0,0,0,0,0,0,0,135,0,0
60.84,60840,29.121,1.647,47.962287,0.006,-0.008,0.001,-0.024,0,-0.003,0.53,75.2,24,1.013088774,102651.22,58.17,1.109,-9.688,1.84,-0.1131632653,0.9885714286,-0.187755102,0,0,0,0,0,0,0,0,0,0,135,0,0
61.345,61345,29.202,1.52,44.38704,0.006,-0.006,0.001,-0.023,0,0,0.528,75.2,24,1.013128251,102655.22,58.18,1.035,-9.691,1.84,-0.1056122449,0.988877551,-0.187755102,0,0,0,0,0,0,0,0,0,0,135,0,0
61.845,61845,29.202,1.52,44.38704,0.006,-0.006,0.001,-0.023,0,0,0.528,75.2,24,1.013128251,102655.22,58.18,1.035,-9.691,1.84,-0.1056122449,0.988877551,-0.187755102,0,0,0,0,0,0,0,0,0,0,135,0,0
62.345,62345,29.045,1.704,49.49268,0.006,-0.006,0.001,-0.023,0,-0.001,0.528,75.254,24.03,1.013247076,102667.26,58.17,1.074,-9.727,1.84,-0.1095918367,0.9925510204,-0.187755102,0,0,0,0,0,0,0,0,0,0,135,0,0
62.845,62845,29.055,1.589,46.168395,0.006,-0.006,0.001,-0.023,0,-0.001,0.53,75.272,24.04,1.013275401,102670.13,58.17,1.109,-9.688,1.879,-0.1131632653,0.9885714286,-0.1917346939,0,0,0,0,0,0,0,0,0,0,135,0,0
63.345,63345,29.067,1.55,45.05385,0.006,-0.008,0.002,-0.02,0,-0.001,0.528,75.308,24.06,1.013349025,102677.59,58.17,1.035,-9.727,1.801,-0.1056122449,0.9925510204,-0.1837755102,0,0,0,0,0,0,0,0,0,0,135,0,0
63.845,63845,29.028,1.632,47.373696,0.007,-0.008,0.002,-0.025,0,0,0.528,75.326,24.07,1.013358204,102678.52,58.18,1.074,-9.688,1.84,-0.1095918367,0.9885714286,-0.187755102,0,0,0,0,0,0,0,0,0,0,135,0,0
64.345,64345,28.845,1.73,49.90185,0.007,-0.006,0.002,-0.019,0,0,0.528,75.362,24.09,1.013463607,102689.2,58.16,1.035,-9.73,1.84,-0.1056122449,0.9928571429,-0.187755102,0,0,0,0,0,0,0,0,0,0,135,0,0
64.845,64845,28.879,1.769,51.086951,0.007,-0.009,0.001,-0.018,0,-0.003,0.528,75.398,24.11,1.01350792,102693.69,58.14,1.035,-9.688,1.801,-0.1056122449,0.9885714286,-0.1837755102,0,0,0,0,0,0,0,0,0,0,135,0,0
65.345,65345,28.879,1.769,51.086951,0.007,-0.009,0.001,-0.018,0,-0.003,0.528,75.398,24.11,1.01350792,102693.69,58.14,1.035,-9.688,1.801,-0.1056122449,0.9885714286,-0.1837755102,0,0,0,0,0,0,0,0,0,0,135,0,0
65.845,65845,29.216,1.335,39.00336,0.006,-0.005,0.001,-0.028,0,-0.001,0.528,75.434,24.13,1.01358569,102701.57,58.13,1.074,-9.688,1.84,-0.1095918367,0.9885714286,-0.187755102,0,0,0,0,0,0,0,0,0,0,135,0,0
66.345,66345,28.817,1.763,50.804371,0.006,-0.006,0.004,-0.026,0,-0.003,0.53,75.47,24.15,1.013620627,102705.11,58.13,1.074,-9.727,1.84,-0.1095918367,0.9925510204,-0.187755102,0,0,0,0,0,0,0,0,0,0,135,0,0
66.845,66845,28.919,1.818,52.574742,0.009,-0.008,0.002,-0.026,0,-0.003,0.53,75.488,24.16,1.013685961,102711.73,58.13,1.074,-9.688,1.84,-0.1095918367,0.9885714286,-0.187755102,0,0,0,0,0,0,0,0,0,0,135,0,0
67.345,67345,28.711,1.93,55.41223,0.007,-0.009,0.002,-0.024,0,-0.001,0.53,75.542,24.19,1.01376679,102719.92,58.13,1.074,-9.688,1.84,-0.1095918367,0.9885714286,-0.187755102,0,0,0,0,0,0,0,0,0,0,135,0,0
67.845,67845,28.827,1.848,53.272296,0.007,-0.008,0.002,-0.021,0,-0.001,0.532,75.578,24.21,1.013790871,102722.36,58.1,1.074,-9.648,1.801,-0.1095918367,0.9844897959,-0.1837755102,0,0,0,0,0,0,0,0,0,0,135,0,0
68.345,68345,28.827,1.848,53.272296,0.007,-0.008,0.002,-0.021,0,-0.001,0.532,75.578,24.21,1.013790871,102722.36,58.1,1.074,-9.648,1.801,-0.1095918367,0.9844897959,-0.1837755102,0,0,0,0,0,0,0,0,0,0,135,0,0
68.845,68845,28.968,1.608,46.580544,0.007,-0.006,0.004,-0.029,0,-0.001,0.53,75.614,24.23,1.013875352,102730.92,58.09,1.074,-9.688,1.879,-0.1095918367,0.9885714286,-0.1917346939,0,0,0,0,0,0,0,0,0,0,135,0,0
69.345,69345,28.976,1.569,45.463344,0.006,-0.009,0.004,-0.024,0,-0.003,0.53,75.65,24.25,1.013943252,102737.8,58.09,1.074,-9.727,1.879,-0.1095918367,0.9925510204,-0.1917346939,0,0,0,0,0,0,0,0,0,0,135,0,0
69.845,69845,28.861,1.885,54.402985,0.007,-0.008,0.002,-0.029,0,-0.001,0.53,75.668,24.26,1.014015297,102745.1,58.04,1.074,-9.691,1.914,-0.1095918367,0.988877551,-0.1953061224,0,0,0,0,0,0,0,0,0,0,135,0,0
70.345,70345,28.961,1.6,46.3376,0.007,-0.008,0.002,-0.025,0,-0.001,0.53,75.704,24.28,1.014042734,102747.88,58.06,1.074,-9.688,1.84,-0.1095918367,0.9885714286,-0.187755102,0,0,0,0,0,0,0,0,0,0,135,0,0
70.846,70846,28.911,1.749,50.565339,0.009,-0.008,0.002,-0.024,0,-0.001,0.53,75.74,24.3,1.014100271,102753.71,58.05,1.035,-9.688,1.801,-0.1056122449,0.9885714286,-0.1837755102,0,0,0,0,0,0,0,0,0,0,135,0,0
71.346,71346,28.911,1.749,50.565339,0.009,-0.008,0.002,-0.024,0,-0.001,0.53,75.74,24.3,1.014100271,102753.71,58.05,1.035,-9.688,1.801,-0.1056122449,0.9885714286,-0.1837755102,0,0,0,0,0,0,0,0,0,0,135,0,0
71.846,71846,29.317,1.213,35.561521,0.007,-0.008,0.004,-0.026,0,0,0.53,75.794,24.33,1.014231631,102767.02,58.06,1.074,-9.688,1.84,-0.1095918367,0.9885714286,-0.187755102,0,0,0,0,0,0,0,0,0,0,135,0,0
72.346,72346,28.951,1.719,49.766769,0.007,-0.006,0.002,-0.028,0,-0.001,0.53,75.83,24.35,1.014252455,102769.13,58.04,1.074,-9.691,1.801,-0.1095918367,0.988877551,-0.1837755102,0,0,0,0,0,0,0,0,0,0,135,0,0
72.846,72846,28.987,1.804,52.292548,0.007,-0.01,0.004,-0.026,0,-0.001,0.53,75.848,24.36,1.014275746,102771.49,58.04,0.996,-9.691,1.84,-0.1016326531,0.988877551,-0.187755102,0,0,0,0,0,0,0,0,0,0,135,0,0
73.346,73346,29.204,1.634,47.719336,0.007,-0.009,0.004,-0.026,0,-0.001,0.53,75.884,24.38,1.014380656,102782.12,58.04,1.035,-9.73,1.84,-0.1056122449,0.9928571429,-0.187755102,0,0,0,0,0,0,0,0,0,0,135,0,0
73.846,73846,29.041,1.375,39.931375,0.007,-0.009,0.002,-0.026,0,-0.001,0.53,75.938,24.41,1.014394473,102783.52,58.03,1.074,-9.727,1.879,-0.1095918367,0.9925510204,-0.1917346939,0,0,0,0,0,0,0,0,0,0,135,0,0
74.346,74346,28.834,1.76,50.74784,0.007,-0.01,0.002,-0.023,0,-0.001,0.53,75.974,24.43,1.014486454,102792.84,58.01,0.996,-9.688,1.801,-0.1016326531,0.9885714286,-0.1837755102,0,0,0,0,0,0,0,0,0,0,135,0,0
74.846,74846,28.834,1.76,50.74784,0.007,-0.01,0.002,-0.023,0,-0.001,0.53,75.974,24.43,1.014486454,102792.84,58.01,0.996,-9.688,1.801,-0.1016326531,0.9885714286,-0.1837755102,0,0,0,0,0,0,0,0,0,0,135,0,0
75.346,75346,28.965,1.577,45.677805,0.007,-0.009,0.004,-0.025,0,-0.001,0.53,75.992,24.44,1.014530076,102797.26,58,1.074,-9.688,1.879,-0.1095918367,0.9885714286,-0.1917346939,0,0,0,0,0,0,0,0,0,0,135,0,0
75.846,75846,28.76,1.918,55.16168,0.009,-0.009,0.005,-0.025,0,-0.001,0.53,76.028,24.46,1.014556625,102799.95,57.99,1.074,-9.652,1.879,-0.1095918367,0.9848979592,-0.1917346939,0,0,0,0,0,0,0,0,0,0,135,0,0
76.346,76346,29.119,1.454,42.339026,0.009,-0.009,0.002,-0.029,0,-0.001,0.53,76.064,24.48,1.014624525,102806.83,57.95,1.074,-9.688,1.84,-0.1095918367,0.9885714286,-0.187755102,0,0,0,0,0,0,0,0,0,0,135,0,0
76.846,76846,29.519,1.318,38.906042,0.009,-0.009,0.004,-0.023,0,-0.001,0.53,76.1,24.5,1.014677918,102812.24,57.95,1.035,-9.688,1.801,-0.1056122449,0.9885714286,-0.1837755102,0,0,0,0,0,0,0,0,0,0,135,0,0
77.346,77346,29.164,1.395,40.68378,0.007,-0.009,0.004,-0.026,0,-0.001,0.53,76.154,24.53,1.014719664,102816.47,57.93,0.996,-9.73,1.84,-0.1016326531,0.9928571429,-0.187755102,0,0,0,0,0,0,0,0,0,0,135,0,0
77.874,77874,28.948,1.717,49.703716,0.009,-0.008,0.004,-0.023,0,-0.001,0.53,76.19,24.55,1.014777498,102822.33,57.92,1.074,-9.688,1.762,-0.1095918367,0.9885714286,-0.1797959184,0,0,0,0,0,0,0,0,0,0,135,0,0
78.374,78374,29.109,1.413,41.131017,0.009,-0.009,0.004,-0.026,0,-0.001,0.53,76.208,24.56,1.01485132,102829.81,57.91,1.035,-9.73,1.84,-0.1056122449,0.9928571429,-0.187755102,0,0,0,0,0,0,0,0,0,0,135,0,0
78.874,78874,29.109,1.413,41.131017,0.009,-0.009,0.004,-0.026,0,-0.001,0.53,76.208,24.56,1.01485132,102829.81,57.91,1.035,-9.73,1.84,-0.1056122449,0.9928571429,-0.187755102,0,0,0,0,0,0,0,0,0,0,135,0,0
79.374,79374,29.115,1.48,43.0902,0.009,-0.009,0.004,-0.028,0,0,0.53,76.262,24.59,1.014888724,102833.6,57.89,1.035,-9.727,1.801,-0.1056122449,0.9925510204,-0.1837755102,0,0,0,0,0,0,0,0,0,0,135,0,0
79.874,79874,29.104,1.528,44.470912,0.009,-0.009,0.004,-0.029,0,-0.001,0.53,76.28,24.6,1.01496827,102841.66,57.84,1.074,-9.688,1.879,-0.1095918367,0.9885714286,-0.1917346939,0,0,0,0,0,0,0,0,0,0,135,0,0
80.374,80374,29.497,1.003,29.585491,0.01,-0.009,0.004,-0.03,0,0,0.53,76.334,24.63,1.014992549,102844.12,57.85,1.035,-9.648,1.84,-0.1056122449,0.9844897959,-0.187755102,0,0,0,0,0,0,0,0,0,0,135,0,0
80.874,80874,28.989,1.533,44.440137,0.009,-0.008,0.002,-0.028,0,-0.001,0.53,76.37,24.65,1.015042388,102849.17,57.83,1.035,-9.688,1.801,-0.1056122449,0.9885714286,-0.1837755102,0,0,0,0,0,0,0,0,0,0,135,0,0
81.377,81377,29.278,1.021,29.892838,0.009,-0.009,0.004,-0.023,0,-0.001,0.53,76.406,24.67,1.015096867,102854.69,57.81,1.109,-9.727,1.84,-0.1131632653,0.9925510204,-0.187755102,0,0,0,0,0,0,0,0,0,0,135,0,0
81.877,81877,29.464,1.013,29.847032,0.009,-0.008,0.004,-0.028,0,-0.001,0.53,76.442,24.69,1.015128645,102857.91,57.8,1.035,-9.73,1.84,-0.1056122449,0.9928571429,-0.187755102,0,0,0,0,0,0,0,0,0,0,135,0,0
82.377,82377,29.464,1.013,29.847032,0.009,-0.008,0.004,-0.028,0,-0.001,0.53,76.442,24.69,1.015128645,102857.91,57.8,1.035,-9.73,1.84,-0.1056122449,0.9928571429,-0.187755102,0,0,0,0,0,0,0,0,0,0,135,0,0
82.877,82877,29.086,1.584,46.072224,0.007,-0.009,0.004,-0.029,0,0,0.53,76.478,24.71,1.015176018,102862.71,57.78,1.035,-9.691,1.879,-0.1056122449,0.988877551,-0.1917346939,0,0,0,0,0,0,0,0,0,0,135,0,0
83.377,83377,29.388,1.137,33.414156,0.009,-0.01,0.004,-0.031,0,-0.001,0.53,76.514,24.73,1.015211843,102866.34,57.77,1.035,-9.73,1.879,-0.1056122449,0.9928571429,-0.1917346939,0,0,0,0,0,0,0,0,0,0,135,0,0
83.877,83877,28.851,1.909,55.076559,0.01,-0.01,0.004,-0.031,0,-0.001,0.53,76.55,24.75,1.015247964,102870,57.74,1.035,-9.691,1.879,-0.1056122449,0.988877551,-0.1917346939,0,0,0,0,0,0,0,0,0,0,135,0,0
84.377,84377,29.011,1.572,45.605292,0.009,-0.009,0.004,-0.031,0,-0.001,0.53,76.604,24.78,1.015312707,102876.56,57.72,1.035,-9.652,1.801,-0.1056122449,0.9848979592,-0.1837755102,0,0,0,0,0,0,0,0,0,0,135,0,0
84.877,84877,29.44,1.143,33.64992,0.01,-0.01,0.002,-0.028,0,-0.001,0.53,76.622,24.79,1.015343696,102879.7,57.68,1.074,-9.727,1.879,-0.1095918367,0.9925510204,-0.1917346939,0,0,0,0,0,0,0,0,0,0,135,0,0
85.377,85377,29.44,1.143,33.64992,0.01,-0.01,0.002,-0.028,0,-0.001,0.53,76.622,24.79,1.015343696,102879.7,57.68,1.074,-9.727,1.879,-0.1095918367,0.9925510204,-0.1917346939,0,0,0,0,0,0,0,0,0,0,135,0,0
85.877,85877,28.936,1.662,48.091632,0.01,-0.009,0.004,-0.034,0,-0.001,0.53,76.658,24.81,1.015375376,102882.91,57.66,0.996,-9.691,1.879,-0.1016326531,0.988877551,-0.1917346939,0,0,0,0,0,0,0,0,0,0,135,0,0
86.377,86377,29.056,1.498,43.525888,0.009,-0.008,0.004,-0.025,0,-0.001,0.53,76.712,24.84,1.015469134,102892.41,57.65,1.035,-9.691,1.84,-0.1056122449,0.988877551,-0.187755102,0,0,0,0,0,0,0,0,0,0,135,0,0
86.877,86877,29.292,1.082,31.693944,0.009,-0.009,0.005,-0.026,0,-0.001,0.53,76.766,24.87,1.015489761,102894.5,57.6,1.035,-9.691,1.84,-0.1056122449,0.988877551,-0.187755102,0,0,0,0,0,0,0,0,0,0,135,0,0
87.377,87377,29.077,1.47,42.74319,0.009,-0.009,0.004,-0.031,0,0,0.53,76.802,24.89,1.015551739,102900.78,57.58,1.035,-9.691,1.84,-0.1056122449,0.988877551,-0.187755102,0,0,0,0,0,0,0,0,0,0,135,0,0
87.877,87877,29.035,1.499,43.523465,0.01,-0.009,0.004,-0.029,0,0,0.53,76.838,24.91,1.01560375,102906.05,57.55,1.035,-9.691,1.84,-0.1056122449,0.988877551,-0.187755102,0,0,0,0,0,0,0,0,0,0,135,0,0
88.377,88377,29.035,1.499,43.523465,0.01,-0.009,0.004,-0.029,0,0,0.53,76.838,24.91,1.01560375,102906.05,57.55,1.035,-9.691,1.84,-0.1056122449,0.988877551,-0.187755102,0,0,0,0,0,0,0,0,0,0,135,0,0
88.877,88877,28.791,1.822,52.457202,0.009,-0.009,0.005,-0.031,0,-0.001,0.53,76.874,24.93,1.015601678,102905.84,57.52,1.074,-9.688,1.879,-0.1095918367,0.9885714286,-0.1917346939,0,0,0,0,0,0,0,0,0,0,135,0,0
89.377,89377,28.835,1.869,53.892615,0.009,-0.009,0.005,-0.03,0,0,0.53,76.892,24.94,1.015682211,102914,57.5,0.996,-9.688,1.801,-0.1016326531,0.9885714286,-0.1837755102,0,0,0,0,0,0,0,0,0,0,135,0,0
89.877,89877,28.673,1.943,55.711639,0.01,-0.01,0.002,-0.033,0,-0.003,0.53,76.946,24.97,1.015721984,102918.03,57.46,1.035,-9.688,1.801,-0.1056122449,0.9885714286,-0.1837755102,0,0,0,0,0,0,0,0,0,0,135,0,0
90.377,90377,28.776,1.938,55.767888,0.01,-0.01,0.004,-0.031,0,-0.001,0.53,77,25,1.015787417,102924.66,57.42,0.996,-9.688,1.801,-0.1016326531,0.9885714286,-0.1837755102,0,0,0,0,0,0,0,0,0,0,135,0,0
90.877,90877,28.878,1.753,50.623134,0.009,-0.009,0.005,-0.033,0,0,0.53,77.036,25.02,1.015836566,102929.64,57.4,1.074,-9.652,1.879,-0.1095918367,0.9848979592,-0.1917346939,0,0,0,0,0,0,0,0,0,0,135,0,0
91.377,91377,29.115,1.373,39.974895,0.01,-0.009,0.002,-0.034,0,-0.003,0.53,77.072,25.04,1.015869134,102932.94,57.37,0.996,-9.688,1.801,-0.1016326531,0.9885714286,-0.1837755102,0,0,0,0,0,0,0,0,0,0,135,0,0
91.877,91877,29.115,1.373,39.974895,0.01,-0.009,0.002,-0.034,0,-0.003,0.53,77.072,25.04,1.015869134,102932.94,57.37,0.996,-9.688,1.801,-0.1016326531,0.9885714286,-0.1837755102,0,0,0,0,0,0,0,0,0,0,135,0,0
92.377,92377,29.079,1.462,42.513498,0.01,-0.01,0.005,-0.03,0,-0.001,0.53,77.108,25.06,1.015907525,102936.83,57.33,1.074,-9.688,1.879,-0.1095918367,0.9885714286,-0.1917346939,0,0,0,0,0,0,0,0,0,0,135,0,0
92.877,92877,29.065,1.464,42.55116,0.009,-0.01,0.005,-0.028,0,0,0.53,77.162,25.09,1.015968517,102943.01,57.31,1.035,-9.691,1.84,-0.1056122449,0.988877551,-0.187755102,0,0,0,0,0,0,0,0,0,0,135,0,0
93.377,93377,28.976,1.413,40.943088,0.01,-0.009,0.004,-0.029,0,-0.001,0.53,77.198,25.11,1.015999112,102946.11,57.29,1.035,-9.648,1.84,-0.1056122449,0.9844897959,-0.187755102,0,0,0,0,0,0,0,0,0,0,135,0,0
93.877,93877,29.02,1.624,47.12848,0.01,-0.01,0.005,-0.029,0,-0.001,0.53,77.234,25.13,1.016060992,102952.38,57.26,1.035,-9.73,1.762,-0.1056122449,0.9928571429,-0.1797959184,0,0,0,0,0,0,0,0,0,0,135,0,0
94.383,94383,29.451,1.005,29.598255,0.009,-0.009,0.004,-0.029,0,0,0.53,77.27,25.15,1.016108858,102957.23,57.21,0.957,-9.73,1.879,-0.09765306122,0.9928571429,-0.1917346939,0,0,0,0,0,0,0,0,0,0,135,0,0
94.883,94883,29.451,1.005,29.598255,0.009,-0.009,0.004,-0.029,0,0,0.53,77.27,25.15,1.016108858,102957.23,57.21,0.957,-9.73,1.879,-0.09765306122,0.9928571429,-0.1917346939,0,0,0,0,0,0,0,0,0,0,135,0,0
95.383,95383,29.134,1.373,40.000982,0.01,-0.009,0.004,-0.028,0,-0.004,0.53,77.018,25.01,1.015863607,102932.38,57.17,1.035,-9.691,1.762,-0.1056122449,0.988877551,-0.1797959184,0,0,0,0,0,0,0,0,0,0,135,0,0
95.883,95883,29.214,1.105,32.28147,0.01,-0.01,0.004,-0.033,0,-0.004,0.532,77.09,25.05,1.015966543,102942.81,57.15,1.035,-9.73,1.84,-0.1056122449,0.9928571429,-0.187755102,0,0,0,0,0,0,0,0,0,0,135,0,0
96.383,96383,29.327,1.033,30.294791,0.01,-0.01,0.004,-0.03,0,-0.004,0.528,77.126,25.07,1.015982137,102944.39,57.12,1.035,-9.691,1.84,-0.1056122449,0.988877551,-0.187755102,0,0,0,0,0,0,0,0,0,0,135,0,0
96.883,96883,29.285,1.065,31.188525,0.009,-0.009,0.005,-0.035,0,-0.006,0.53,77.162,25.09,1.016057439,102952.02,57.1,0.996,-9.691,1.84,-0.1016326531,0.988877551,-0.187755102,0,0,0,0,0,0,0,0,0,0,135,0,0
97.383,97383,29.466,1.013,29.849058,0.01,-0.009,0.004,-0.03,0,-0.004,0.532,77.198,25.11,1.016032963,102949.54,57.05,0.996,-9.73,1.84,-0.1016326531,0.9928571429,-0.187755102,0,0,0,0,0,0,0,0,0,0,135,0,0
97.883,97883,29.472,0.984,29.000448,0.01,-0.01,0.004,-0.029,0,-0.004,0.528,77.27,25.15,1.01610116,102956.45,57.01,1.074,-9.727,1.84,-0.1095918367,0.9925510204,-0.187755102,0,0,0,0,0,0,0,0,0,0,135,0,0
98.383,98383,29.472,0.984,29.000448,0.01,-0.01,0.004,-0.029,0,-0.004,0.528,77.27,25.15,1.01610116,102956.45,57.01,1.074,-9.727,1.84,-0.1095918367,0.9925510204,-0.187755102,0,0,0,0,0,0,0,0,0,0,135,0,0
98.883,98883,29.237,1.067,31.195879,0.01,-0.01,0.005,-0.034,0,-0.004,0.534,77.324,25.18,1.016175672,102964,56.97,0.996,-9.691,1.879,-0.1016326531,0.988877551,-0.1917346939,0,0,0,0,0,0,0,0,0,0,135,0,0
99.383,99383,29.504,1.025,30.2416,0.01,-0.009,0.005,-0.026,0,-0.005,0.528,77.36,25.2,1.016201431,102966.61,56.94,1.035,-9.691,1.879,-0.1056122449,0.988877551,-0.1917346939,0,0,0,0,0,0,0,0,0,0,135,0,0
99.883,99883,29.653,0.808,23.959624,0.01,-0.011,0.005,-0.031,0,-0.005,0.532,77.414,25.23,1.016258179,102972.36,56.91,1.035,-9.691,1.84,-0.1056122449,0.988877551,-0.187755102,0,0,0,0,0,0,0,0,0,0,135,0,0
100.383,100383,29.493,0.928,27.369504,0.01,-0.01,0.005,-0.029,0,-0.004,0.53,77.468,25.26,1.016270812,102973.64,56.88,1.035,-9.648,1.762,-0.1056122449,0.9844897959,-0.1797959184,0,0,0,0,0,0,0,0,0,0,135,0,0
100.883,100883,29.561,0.817,24.151337,0.01,-0.01,0.005,-0.03,0,-0.005,0.53,77.504,25.28,1.01631167,102977.78,56.84,0.996,-9.691,1.84,-0.1016326531,0.988877551,-0.187755102,0,0,0,0,0,0,0,0,0,0,135,0,0
101.383,101383,29.561,0.817,24.151337,0.01,-0.01,0.005,-0.03,0,-0.005,0.53,77.504,25.28,1.01631167,102977.78,56.84,0.996,-9.691,1.84,-0.1016326531,0.988877551,-0.187755102,0,0,0,0,0,0,0,0,0,0,135,0,0
101.883,101883,29.65,0.87,25.7955,0.011,-0.01,0.005,-0.03,0,-0.005,0.536,77.54,25.3,1.01634641,102981.3,56.78,0.996,-9.691,1.84,-0.1016326531,0.988877551,-0.187755102,0,0,0,0,0,0,0,0,0,0,135,0,0
102.383,102383,29.651,0.929,27.545779,0.01,-0.01,0.005,-0.034,0,-0.005,0.53,77.594,25.33,1.016372169,102983.91,56.72,1.035,-9.609,1.879,-0.1056122449,0.9805102041,-0.1917346939,0,0,0,0,0,0,0,0,0,0,135,0,0
102.883,102883,29.614,0.864,25.586496,0.01,-0.011,0.005,-0.033,0,-0.005,0.534,77.63,25.35,1.016407106,102987.45,56.71,1.035,-9.652,1.801,-0.1056122449,0.9848979592,-0.1837755102,0,0,0,0,0,0,0,0,0,0,135,0,0
103.383,103383,29.615,1.016,30.08884,0.011,-0.01,0.005,-0.03,0,-0.004,0.534,77.684,25.38,1.016394473,102986.17,56.67,1.035,-9.691,1.84,-0.1056122449,0.988877551,-0.187755102,0,0,0,0,0,0,0,0,0,0,135,0,0
103.884,103884,29.606,0.849,25.135494,0.01,-0.011,0.004,-0.029,0,-0.005,0.536,77.72,25.4,1.016465532,102993.37,56.63,1.035,-9.648,1.84,-0.1056122449,0.9844897959,-0.187755102,0,0,0,0,0,0,0,0,0,0,135,0,0
104.384,104384,29.606,0.849,25.135494,0.01,-0.011,0.004,-0.029,0,-0.005,0.536,77.72,25.4,1.016465532,102993.37,56.63,1.035,-9.648,1.84,-0.1056122449,0.9844897959,-0.187755102,0,0,0,0,0,0,0,0,0,0,135,0,0
104.884,104884,29.532,0.854,25.220328,0.011,-0.01,0.004,-0.034,0,-0.005,0.536,77.774,25.43,1.016473328,102994.16,56.62,1.035,-9.688,1.801,-0.1056122449,0.9885714286,-0.1837755102,0,0,0,0,0,0,0,0,0,0,135,0,0
105.384,105384,29.444,0.863,25.410172,0.011,-0.01,0.004,-0.03,0,-0.003,0.532,77.81,25.45,1.016505107,102997.38,56.55,0.996,-9.691,1.879,-0.1016326531,0.988877551,-0.1917346939,0,0,0,0,0,0,0,0,0,0,135,0,0
105.884,105884,29.305,1.19,34.87295,0.013,-0.011,0.005,-0.033,0,-0.004,0.526,77.846,25.47,1.016511522,102998.03,56.51,1.035,-9.691,1.84,-0.1056122449,0.988877551,-0.187755102,0,0,0,0,0,0,0,0,0,0,135,0,0
106.384,106384,29.495,0.94,27.7253,0.01,-0.011,0.004,-0.029,0,-0.003,0.532,77.9,25.5,1.016576659,103004.63,56.44,1.074,-9.73,1.801,-0.1095918367,0.9928571429,-0.1837755102,0,0,0,0,0,0,0,0,0,0,135,0,0
106.884,106884,29.618,0.833,24.671794,0.01,-0.011,0.004,-0.029,0,-0.005,0.53,77.954,25.53,1.016587219,103005.7,56.42,1.035,-9.691,1.84,-0.1056122449,0.988877551,-0.187755102,0,0,0,0,0,0,0,0,0,0,135,0,0
107.384,107384,29.406,1.162,34.169772,0.01,-0.011,0.005,-0.029,0,-0.005,0.536,77.99,25.55,1.016610412,103008.05,56.38,0.996,-9.691,1.84,-0.1016326531,0.988877551,-0.187755102,0,0,0,0,0,0,0,0,0,0,135,0,0
107.884,107884,29.406,1.162,34.169772,0.01,-0.011,0.005,-0.029,0,-0.005,0.536,77.99,25.55,1.016610412,103008.05,56.38,0.996,-9.691,1.84,-0.1016326531,0.988877551,-0.187755102,0,0,0,0,0,0,0,0,0,0,135,0,0
108.384,108384,29.646,0.82,24.30972,0.01,-0.011,0.002,-0.028,0,-0.005,0.526,78.026,25.57,1.016665581,103013.64,56.34,0.996,-9.691,1.84,-0.1016326531,0.988877551,-0.187755102,0,0,0,0,0,0,0,0,0,0,135,0,0
108.884,108884,29.25,1.23,35.9775,0.01,-0.01,0.005,-0.031,0,-0.005,0.528,78.062,25.59,1.016678115,103014.91,56.3,1.035,-9.648,1.84,-0.1056122449,0.9844897959,-0.187755102,0,0,0,0,0,0,0,0,0,0,135,0,0
109.384,109384,29.653,0.827,24.523031,0.01,-0.011,0.005,-0.026,0,-0.004,0.532,78.116,25.62,1.016728843,103020.05,56.26,0.996,-9.691,1.879,-0.1016326531,0.988877551,-0.1917346939,0,0,0,0,0,0,0,0,0,0,135,0,0
109.884,109884,29.585,1.12,33.1352,0.01,-0.01,0.004,-0.03,0,-0.004,0.528,78.152,25.64,1.016727757,103019.94,56.19,0.957,-9.648,1.762,-0.09765306122,0.9844897959,-0.1797959184,0,0,0,0,0,0,0,0,0,0,135,0,0
110.384,110384,29.608,0.859,25.433272,0.01,-0.01,0.004,-0.034,0,-0.003,0.532,78.206,25.67,1.016754898,103022.69,56.16,1.035,-9.691,1.84,-0.1056122449,0.988877551,-0.187755102,0,0,0,0,0,0,0,0,0,0,135,0,0
110.893,110893,29.247,1.23,35.97381,0.01,-0.011,0.004,-0.03,0,-0.005,0.528,78.26,25.7,1.016817666,103029.05,56.12,0.996,-9.691,1.84,-0.1016326531,0.988877551,-0.187755102,0,0,0,0,0,0,0,0,0,0,135,0,0
111.393,111393,29.247,1.23,35.97381,0.01,-0.011,0.004,-0.03,0,-0.005,0.528,78.26,25.7,1.016817666,103029.05,56.12,0.996,-9.691,1.84,-0.1016326531,0.988877551,-0.187755102,0,0,0,0,0,0,0,0,0,0,135,0,0
111.893,111893,29.31,1.203,35.25993,0.009,-0.011,0.006,-0.029,0,-0.005,0.534,78.296,25.72,1.016844115,103031.73,56.09,0.957,-9.652,1.801,-0.09765306122,0.9848979592,-0.1837755102,0,0,0,0,0,0,0,0,0,0,135,0,0
112.393,112393,29.291,1.213,35.529983,0.01,-0.011,0.005,-0.029,0,-0.004,0.528,78.332,25.74,1.01687698,103035.06,56.01,0.996,-9.691,1.879,-0.1016326531,0.988877551,-0.1917346939,0,0,0,0,0,0,0,0,0,0,135,0,0
112.893,112893,29.62,0.827,24.49574,0.01,-0.01,0.005,-0.03,0,-0.004,0.532,78.386,25.77,1.016916753,103039.09,55.97,0.996,-9.652,1.801,-0.1016326531,0.9848979592,-0.1837755102,0,0,0,0,0,0,0,0,0,0,135,0,0
113.393,113393,29.625,0.85,25.18125,0.01,-0.01,0.004,-0.033,0,-0.005,0.534,78.422,25.79,1.016975278,103045.02,55.94,0.996,-9.691,1.84,-0.1016326531,0.988877551,-0.187755102,0,0,0,0,0,0,0,0,0,0,135,0,0
113.893,113893,29.603,0.858,25.399374,0.011,-0.01,0.005,-0.031,0,-0.004,0.534,78.476,25.82,1.016970738,103044.56,55.91,0.996,-9.609,1.84,-0.1016326531,0.9805102041,-0.187755102,0,0,0,0,0,0,0,0,0,0,135,0,0
114.393,114393,29.603,0.858,25.399374,0.011,-0.01,0.005,-0.031,0,-0.004,0.534,78.476,25.82,1.016970738,103044.56,55.91,0.996,-9.609,1.84,-0.1016326531,0.9805102041,-0.187755102,0,0,0,0,0,0,0,0,0,0,135,0,0
114.893,114893,29.63,0.815,24.14845,0.01,-0.01,0.004,-0.03,0,-0.004,0.536,78.512,25.84,1.016975278,103045.02,55.85,1.035,-9.652,1.801,-0.1056122449,0.9848979592,-0.1837755102,0,0,0,0,0,0,0,0,0,0,135,0,0
115.393,115393,29.579,1.14,33.72006,0.01,-0.009,0.005,-0.026,0,-0.005,0.528,78.566,25.87,1.017000345,103047.56,55.78,1.035,-9.648,1.879,-0.1056122449,0.9844897959,-0.1917346939,0,0,0,0,0,0,0,0,0,0,135,0,0
115.893,115893,29.479,1.008,29.714832,0.011,-0.01,0.004,-0.029,0,-0.005,0.53,78.602,25.89,1.017047915,103052.38,55.73,0.996,-9.691,1.879,-0.1016326531,0.988877551,-0.1917346939,0,0,0,0,0,0,0,0,0,0,135,0,0
116.393,116393,28.98,1.523,44.13654,0.011,-0.01,0.005,-0.031,0,-0.004,0.532,78.638,25.91,1.01706262,103053.87,55.7,1.035,-9.691,1.879,-0.1056122449,0.988877551,-0.1917346939,0,0,0,0,0,0,0,0,0,0,135,0,0
116.893,116893,29.045,1.467,42.609015,0.01,-0.01,0.004,-0.034,0,-0.004,0.532,78.674,25.93,1.017082457,103055.88,55.67,0.996,-9.691,1.84,-0.1016326531,0.988877551,-0.187755102,0,0,0,0,0,0,0,0,0,0,135,0,0
117.393,117393,29.145,1.189,34.653405,0.011,-0.009,0.005,-0.029,0,-0.004,0.53,78.728,25.96,1.017122724,103059.96,55.62,1.035,-9.648,1.84,-0.1056122449,0.9844897959,-0.187755102,0,0,0,0,0,0,0,0,0,0,135,0,0
117.898,117898,29.139,1.495,43.562805,0.01,-0.01,0.005,-0.031,0,-0.003,0.534,78.764,25.98,1.017180459,103065.81,55.58,1.035,-9.691,1.84,-0.1056122449,0.988877551,-0.187755102,0,0,0,0,0,0,0,0,0,0,135,0,0
118.398,118398,29.139,1.495,43.562805,0.01,-0.01,0.005,-0.031,0,-0.003,0.534,78.764,25.98,1.017180459,103065.81,55.58,1.035,-9.691,1.84,-0.1056122449,0.988877551,-0.187755102,0,0,0,0,0,0,0,0,0,0,135,0,0
118.898,118898,29.615,0.82,24.2843,0.011,-0.01,0.005,-0.034,0,0,0.528,78.494,25.83,1.016949519,103042.41,55.49,1.035,-9.691,1.84,-0.1056122449,0.988877551,-0.187755102,0,0,0,0,0,0,0,0,0,0,135,0,0
119.398,119398,29.326,1.172,34.370072,0.014,-0.011,0.005,-0.031,0,0,0.536,78.674,25.93,1.016654133,103012.48,54.95,1.035,-9.691,1.84,-0.1056122449,0.988877551,-0.187755102,0,0,0,0,0,0,0,0,0,0,135,0,0
,,,,,,,,,,,,,,,,,,,,,,,,,,,,,,,,,,,
119.898,119898,29.219,1.19,34.77061,0.013,-0.01,0.005,-0.033,0,-0.001,0.522,78.71,25.95,1.016503331,102997.2,54.19,-7.395,-78.457,11.379,0.7545918367,8.005816327,-1.161122449,0,0,0,0,0,0,0,0,0,0,135,0,0
120.398,120398,29.301,1.397,40.933497,0.013,-0.01,0.002,-0.03,0,-0.001,0.538,78.764,25.98,1.016439477,102990.73,53.76,3.484,-78.453,14.328,-0.3555102041,8.005408163,-1.462040816,0,0,0,0,0,0,0,0,0,0,135,0,0
120.898,120898,29.586,0.863,25.532718,0.013,-0.01,0.005,-0.025,0,-0.001,0.534,78.8,26,1.016287787,102975.36,53.52,3.523,-78.457,9.422,-0.3594897959,8.005816327,-0.9614285714,0,0,0,0,0,0,0,0,0,0,135,0,0
121.425,121425,29.321,1.123,32.927483,0.013,-0.01,0.005,-0.031,0,-0.001,0.526,78.836,26.02,1.01609889,102956.22,53.34,4.52,-78.453,10.84,-0.4612244898,8.005408163,-1.106122449,0,0,0,1,0,0,0,0,0,0,135,0,0
121.925,121925,29.321,1.123,32.927483,0.013,-0.01,0.005,-0.031,0,-0.001,0.526,78.836,26.02,1.01609889,102956.22,53.34,4.52,-78.453,10.84,-0.4612244898,8.005408163,-1.106122449,0,0,0,1,0,0,0,0,0,0,135,0,0
122.425,122425,28.972,1.44,41.71968,0.013,-0.011,0.004,-0.031,0,-0.003,0.532,78.89,26.05,1.015890155,102935.07,53.23,1.648,-78.453,7.547,-0.1681632653,8.005408163,-0.7701020408,0,0,0,1,0,0,0,0,0,0,135,0,0
122.925,122925,29.497,0.904,26.665288,0.013,-0.011,0.004,-0.026,0,-0.001,0.528,78.98,26.1,1.015651912,102910.93,53.13,15.359,-78.457,8.082,-1.567244898,8.005816327,-0.8246938776,0,0,0,1,0,0,0,0,0,0,135,0,0
123.425,123425,29.548,0.864,25.529472,0.014,-0.009,0.005,-0.026,0,-0.003,0.532,79.142,26.19,1.015466173,102892.11,53.11,10.113,-78.457,3.41,-1.031938776,8.005816327,-0.3479591837,0,0,0,1,0,0,0,0,0,0,135,0,0
123.925,123925,29.574,0.843,24.930882,0.013,-0.01,0.005,-0.025,0,-0.001,0.528,79.34,26.3,1.015358105,102881.16,53.13,-0.383,-62.598,4.367,0.03908163265,6.38755102,-0.4456122449,0,0,0,1,0,0,0,0,0,0,135,0,0
124.425,124425,29.59,0.829,24.53011,0.015,-0.011,0.004,-0.029,0,0,0.528,79.358,26.31,1.015017419,102846.64,53.25,-1.227,-17.656,2.488,0.1252040816,1.801632653,-0.253877551,0,0,0,1,0,0,0,0,0,0,135,0,0
124.926,124926,29.462,1.078,31.760036,0.015,-0.011,0.002,-0.026,0,0.002,0.536,79.358,26.31,1.014544979,102798.77,53.42,-5.594,10.227,0.691,0.5708163265,-1.043571429,-0.07051020408,0,0,0,1,0,0,0,0,0,0,135,0,0
125.426,125426,29.462,1.078,31.760036,0.015,-0.011,0.002,-0.026,0,0.002,0.536,79.358,26.31,1.014544979,102798.77,53.42,-5.594,10.227,0.691,0.5708163265,-1.043571429,-0.07051020408,0,0,0,1,0,0,0,0,0,0,135,0,0
125.926,125926,29.454,1.033,30.425982,0.018,-0.01,0.006,-0.026,0,0,0.536,79.448,26.36,1.014249593,102768.84,53.57,1.074,12.262,-3.141,-0.1095918367,-1.25122449,0.3205102041,0,0,0,1,0,0,0,0,0,0,135,0,0
126.426,126426,29.538,0.874,25.816212,0.018,-0.009,0.004,-0.026,0,0,0.536,79.52,26.4,1.013842092,102727.55,53.76,-0.844,12.297,-9.117,0.08612244898,-1.254795918,0.9303061224,0,0,0,1,0,0,0,0,0,0,135,0,0
126.926,126926,29.541,0.863,25.493883,0.018,-0.01,0.004,-0.028,0,0,0.53,79.538,26.41,1.013358302,102678.53,53.94,1.953,11.602,-9.27,-0.1992857143,-1.183877551,0.9459183673,0,0,0,1,0,0,0,0,0,0,135,0,0
127.426,127426,29.489,0.968,28.545352,0.019,-0.009,0.005,-0.028,0,-0.001,0.542,79.556,26.42,1.012855761,102627.61,54.08,-0.957,9.73,-11.191,0.09765306122,-0.9928571429,1.141938776,0,0,0,1,0,0,0,0,0,0,135,0,0
127.926,127926,29.566,0.829,24.510214,0.02,-0.011,0.002,-0.025,0,0.002,0.532,79.592,26.44,1.012308512,102572.16,54.2,-0.918,9.77,-10.727,0.09367346939,-0.9969387755,1.094591837,0,0,0,1,0,0,0,0,0,0,135,0,0
128.426,128426,29.575,0.84,24.843,0.021,-0.011,0.005,-0.029,0,-0.001,0.53,79.61,26.45,1.011999803,102540.88,54.3,0.23,9.691,-9.156,-0.02346938776,-0.988877551,0.9342857143,0,0,0,1,0,0,0,0,0,0,135,0,0
128.926,128926,29.575,0.84,24.843,0.021,-0.011,0.005,-0.029,0,-0.001,0.53,79.61,26.45,1.011999803,102540.88,54.3,0.23,9.691,-9.156,-0.02346938776,-0.988877551,0.9342857143,0,0,0,1,0,0,0,0,0,0,135,0,0
129.426,129426,29.526,0.884,26.100984,0.021,-0.011,0.005,-0.023,0,0,0.526,79.628,26.46,1.0115698,102497.31,54.38,-0.27,8.465,-9.543,0.02755102041,-0.8637755102,0.9737755102,0,0,0,1,0,0,0,0,0,0,135,0,0
129.926,129926,29.57,0.84,24.8388,0.024,-0.01,0.005,-0.024,0,-0.001,0.532,79.646,26.47,1.010994029,102438.97,54.47,0.461,8.355,-8.234,-0.04704081633,-0.8525510204,0.8402040816,0,0,0,1,0,0,0,0,0,0,135,0,0
130.426,130426,29.525,0.893,26.365825,0.024,-0.011,0.004,-0.029,0,0,0.534,79.682,26.49,1.010308611,102369.52,54.52,0.27,7.547,-9.305,-0.02755102041,-0.7701020408,0.9494897959,0,0,0,1,0,0,0,0,0,0,135,0,0
130.926,130926,29.51,0.903,26.64753,0.026,-0.01,0.005,-0.029,0,0,0.534,79.718,26.51,1.00969208,102307.05,54.62,0.383,7.66,-6.551,-0.03908163265,-0.7816326531,0.6684693878,0,0,0,1,0,0,0,0,0,0,135,0,0
131.426,131426,29.46,0.855,25.1883,0.029,-0.009,0.006,-0.029,0,0,0.53,79.736,26.52,1.009062127,102243.22,54.65,0.113,7.012,-7.473,-0.01153061224,-0.7155102041,0.7625510204,0,0,0,1,0,0,0,0,0,0,135,0,0
131.926,131926,29.46,0.855,25.1883,0.029,-0.009,0.006,-0.029,0,0,0.53,79.736,26.52,1.009062127,102243.22,54.65,0.113,7.012,-7.473,-0.01153061224,-0.7155102041,0.7625510204,0,0,0,1,0,0,0,0,0,0,135,0,0
132.426,132426,29.503,0.914,26.965742,0.03,-0.01,0.005,-0.026,0,0,0.536,79.772,26.54,1.008425364,102178.7,54.7,-0.727,6.398,-6.441,0.07418367347,-0.6528571429,0.657244898,0,0,0,1,0,0,0,0,0,0,135,0,0
132.926,132926,29.561,0.948,28.023828,0.031,-0.009,0.004,-0.025,0,0,0.534,79.808,26.56,1.007786232,102113.94,54.73,-0.191,6.664,-5.02,0.01948979592,-0.68,0.512244898,0,0,0,1,0,0,0,0,0,0,135,0,0
133.426,133426,29.511,0.894,26.382834,0.032,-0.01,0.002,-0.026,0,0,0.532,79.826,26.57,1.007101505,102044.56,54.76,-0.23,5.781,-4.863,0.02346938776,-0.5898979592,0.4962244898,0,0,0,1,0,0,0,0,0,0,135,0,0
133.926,133926,29.564,0.862,25.484168,0.034,-0.009,0.004,-0.02,0,0,0.528,79.862,26.59,1.006423982,101975.91,54.8,-0.344,5.437,-4.902,0.03510204082,-0.5547959184,0.5002040816,0,0,0,1,0,0,0,0,0,0,135,0,0
134.426,134426,29.105,1.332,38.76786,0.038,-0.01,0.005,-0.024,0,-0.001,0.536,79.898,26.61,1.005651517,101897.64,54.8,-0.305,5.137,-4.328,0.03112244898,-0.5241836735,0.4416326531,0,0,0,1,0,0,0,0,0,0,135,0,0
134.926,134926,29.105,1.332,38.76786,0.038,-0.01,0.005,-0.024,0,-0.001,0.536,79.898,26.61,1.005651517,101897.64,54.8,-0.305,5.137,-4.328,0.03112244898,-0.5241836735,0.4416326531,0,0,0,1,0,0,0,0,0,0,135,0,0
135.426,135426,29.53,0.884,26.10452,0.035,-0.01,0.006,-0.025,0,0.002,0.536,79.952,26.64,1.005051073,101836.8,54.79,-0.113,4.75,-4.406,0.01153061224,-0.4846938776,0.4495918367,0,0,0,1,0,0,0,0,0,0,135,0,0
135.926,135926,29.135,1.295,37.729825,0.038,-0.009,0.004,-0.024,0,0,0.538,79.97,26.65,1.004320849,101762.81,54.8,-0.113,4.098,-4.215,0.01153061224,-0.4181632653,0.4301020408,0,0,0,1,0,0,0,0,0,0,135,0,0
136.426,136426,29.212,1.207,35.258884,0.04,-0.009,0.002,-0.026,0,0,0.53,80.006,26.67,1.003642734,101694.1,54.79,0.305,4.023,-6.703,-0.03112244898,-0.4105102041,0.6839795918,0,0,0,1,0,0,0,0,0,0,135,0,0
136.926,136926,29.215,1.189,34.736635,0.041,-0.009,0.002,-0.024,0,-0.001,0.53,80.024,26.68,1.002926524,101621.53,54.78,-0.383,4.062,-4.98,0.03908163265,-0.4144897959,0.5081632653,0,0,0,1,0,0,0,0,0,0,135,0,0
137.426,137426,29.21,1.184,34.58464,0.043,-0.009,0.005,-0.026,0,-0.001,0.542,80.06,26.7,1.00222719,101550.67,54.77,-0.918,3.641,-4.449,0.09367346939,-0.3715306122,0.4539795918,0,0,0,1,0,0,0,0,0,0,135,0,0
137.926,137926,29.21,1.184,34.58464,0.043,-0.009,0.005,-0.026,0,-0.001,0.542,80.06,26.7,1.00222719,101550.67,54.77,-0.918,3.641,-4.449,0.09367346939,-0.3715306122,0.4539795918,0,0,0,1,0,0,0,0,0,0,135,0,0
138.426,138426,29.144,1.268,36.954592,0.046,-0.011,0.005,-0.023,0,-0.001,0.536,80.114,26.73,1.001396003,101466.45,54.74,-0.422,3.523,-5.016,0.04306122449,-0.3594897959,0.5118367347,0,0,0,1,0,0,0,0,0,0,135,0,0
138.926,138926,29.372,1.008,29.606976,0.046,-0.009,0.005,-0.024,0,-0.001,0.538,79.934,26.63,1.000472835,101372.91,54.62,0.535,3.676,-3.711,-0.05459183673,-0.3751020408,0.3786734694,0,0,0,1,0,0,0,0,0,0,135,0,0
139.426,139426,29.511,0.854,25.202394,0.046,-0.011,0.005,-0.024,0,-0.001,0.532,79.97,26.65,0.999403405,101264.55,54.18,-1.34,3.332,-4.898,0.1367346939,-0.34,0.4997959184,0,0,0,1,0,0,0,0,0,0,135,0,0
139.926,139926,29.405,1.028,30.22834,0.045,-0.01,0.005,-0.025,0,-0.003,0.522,80.006,26.67,0.998588404,101181.97,53.8,2.91,-78.453,3.141,-0.2969387755,8.005408163,-0.3205102041,0,0,0,1,0,0,0,0,0,0,135,0,0
140.426,140426,29.382,0.987,29.000034,0.044,-0.009,0.005,-0.026,0,-0.001,0.536,80.042,26.69,0.997814557,101103.56,53.36,3.18,-78.453,2.375,-0.3244897959,8.005408163,-0.2423469388,0,0,0,1,0,0,0,0,0,0,135,0,0
140.926,140926,29.382,0.987,29.000034,0.044,-0.009,0.005,-0.026,0,-0.001,0.536,80.042,26.69,0.997814557,101103.56,53.36,3.18,-78.453,2.375,-0.3244897959,8.005408163,-0.2423469388,0,0,0,1,0,0,0,0,0,0,135,0,0
141.426,141426,29.464,0.899,26.488136,0.043,-0.01,0.004,-0.023,0,-0.003,0.532,80.618,27.01,0.997503282,101072.02,52.97,2.988,-78.457,1.074,-0.3048979592,8.005816327,-0.1095918367,0,0,0,1,0,0,0,0,0,0,135,0,0
141.926,141926,29.539,0.914,26.998646,0.041,-0.011,0.005,-0.023,0,-0.001,0.532,80.654,27.03,0.996793782,101000.13,52.63,1.953,-78.453,1.418,-0.1992857143,8.005408163,-0.1446938776,0,0,0,1,0,0,0,0,0,0,135,0,0
142.426,142426,29.454,0.91,26.80314,0.038,-0.009,0.004,-0.025,0,-0.001,0.532,80.708,27.06,0.995883444,100907.89,52.36,3.906,-78.457,-1.379,-0.3985714286,8.005816327,0.1407142857,0,0,0,1,0,0,0,0,0,0,135,0,0
142.926,142926,29.445,0.837,24.645465,0.035,-0.011,0.005,-0.016,0,-0.004,0.532,80.726,27.07,0.99510644,100829.16,52.19,3.449,-78.453,-3.793,-0.3519387755,8.005408163,0.3870408163,0,0,0,1,0,0,0,0,0,0,135,0,0
143.426,143426,29.542,0.829,24.490318,0.034,-0.009,0.004,-0.021,0,-0.001,0.534,80.744,27.08,0.994320553,100749.53,52.06,0.766,-78.457,-2.988,-0.07816326531,8.005816327,0.3048979592,0,0,0,1,0,0,0,0,0,0,135,0,0
143.926,143926,29.542,0.829,24.490318,0.034,-0.009,0.004,-0.021,0,-0.001,0.534,80.744,27.08,0.994320553,100749.53,52.06,0.766,-78.457,-2.988,-0.07816326531,8.005816327,0.3048979592,0,0,0,1,0,0,0,0,0,0,135,0,0
144.426,144426,29.446,1.077,31.713342,0.044,-0.009,0.002,-0.023,0,-0.003,0.526,80.24,26.8,0.993019689,100617.72,51.94,3.449,-78.453,-7.164,-0.3519387755,8.005408163,0.7310204082,0,0,0,1,0,0,0,0,0,0,135,0,0
144.926,144926,29.254,0.909,26.591886,0.054,-0.011,0.005,-0.023,0,-0.003,0.526,80.294,26.83,0.992386084,100553.52,51.86,0.996,-78.457,-7.43,-0.1016326531,8.005816327,0.7581632653,0,0,0,1,0,0,0,0,0,0,135,0,0
145.426,145426,29.504,0.854,25.196416,0.061,-0.009,0.004,-0.021,0,-0.004,0.538,80.366,26.87,0.991623291,100476.23,51.82,2.758,-78.453,-9.422,-0.2814285714,8.005408163,0.9614285714,0,0,0,1,0,0,0,0,0,0,135,0,0
145.926,145926,29.493,0.882,26.012826,0.062,-0.01,0.005,-0.021,0,-0.003,0.534,80.42,26.9,0.990699038,100382.58,51.72,0.461,-78.453,-10.84,-0.04704081633,8.005408163,1.106122449,0,0,0,1,0,0,0,0,0,0,135,0,0
146.426,146426,29.4,0.974,28.6356,0.066,-0.01,0.002,-0.019,0,-0.004,0.532,80.474,26.93,0.99,100311.75,51.67,1.57,-78.453,-17.391,-0.1602040816,8.005408163,1.774591837,0,0,0,1,0,0,0,0,0,0,135,0,0
146.926,146926,29.542,0.814,24.047188,0.075,-0.01,0.005,-0.023,0,-0.003,0.524,80.528,26.96,0.98918569,100229.24,51.61,0.844,-78.457,-20.609,-0.08612244898,8.005816327,2.102959184,0,0,0,1,0,0,0,0,0,0,135,0,0
147.43,147430,29.468,0.889,26.197052,0.083,-0.013,0.005,-0.028,0,-0.004,0.526,80.582,26.99,0.988231532,100132.56,51.56,0.383,-78.457,-22.102,-0.03908163265,8.005816327,2.255306122,0,0,0,1,0,0,0,0,0,0,135,0,0
147.93,147930,29.468,0.889,26.197052,0.083,-0.013,0.005,-0.028,0,-0.004,0.526,80.582,26.99,0.988231532,100132.56,51.56,0.383,-78.457,-22.102,-0.03908163265,8.005816327,2.255306122,0,0,0,1,0,0,0,0,0,0,135,0,0
148.43,148430,29.52,0.838,24.73776,0.085,-0.01,0.005,-0.02,0,-0.003,0.53,80.618,27.01,0.98754641,100063.14,51.51,-0.918,-78.457,-25.473,0.09367346939,8.005816327,2.599285714,0,0,0,1,0,0,0,0,0,0,135,0,0
148.93,148930,29.481,0.864,25.471584,0.081,-0.01,0.005,-0.021,0,-0.001,0.532,80.654,27.03,0.98668907,99976.27,51.44,-0.535,-78.457,-31.105,0.05459183673,8.005816327,3.173979592,0,0,0,1,0,0,0,0,0,0,135,0,0
149.43,149430,29.505,0.828,24.43014,0.079,-0.01,0.004,-0.016,0,-0.001,0.53,80.726,27.07,0.985894399,99895.75,51.39,3.484,-78.453,-33.633,-0.3555102041,8.005408163,3.431938776,0,0,0,1,0,0,0,0,0,0,135,0,0
149.93,149930,29.52,0.825,24.354,0.074,-0.01,0.006,-0.018,0,-0.003,0.532,81.104,27.28,0.984948828,99799.94,51.34,0.496,-78.453,-39.84,-0.0506122449,8.005408163,4.065306122,0,0,0,1,0,0,0,0,0,0,135,0,0
150.43,150430,29.479,0.874,25.764646,0.069,-0.01,0.005,-0.018,0,-0.003,0.542,81.158,27.31,0.98429361,99733.55,51.38,-3.332,-78.457,-44.359,0.34,8.005816327,4.526428571,0,0,0,1,0,0,0,0,0,0,135,0,0
150.93,150930,29.479,0.874,25.764646,0.069,-0.01,0.005,-0.018,0,-0.003,0.542,81.158,27.31,0.98429361,99733.55,51.38,-3.332,-78.457,-44.359,0.34,8.005816327,4.526428571,0,0,0,1,0,0,0,0,0,0,135,0,0
151.43,151430,29.278,1.143,33.464754,0.064,-0.008,0.004,-0.02,0,-0.003,0.536,81.158,27.31,0.983509598,99654.11,51.5,-10.727,8.848,-65.617,1.094591837,-0.9028571429,6.695612245,0,0,0,1,0,0,0,0,0,0,135,0,0
151.93,151930,29.031,1.335,38.756385,0.06,-0.009,0.005,-0.019,0,0,0.532,81.248,27.36,0.982672095,99569.25,51.59,-9.883,7.277,-68.648,1.008469388,-0.7425510204,7.004897959,0,0,0,1,0,0,0,0,0,0,135,0,0
152.43,152430,29.005,1.403,40.694015,0.056,-0.009,0.004,-0.02,0,0,0.534,81.266,27.37,0.981879595,99488.95,51.69,-10.305,5.633,-68.719,1.051530612,-0.5747959184,7.012142857,0,0,0,1,0,0,0,0,0,0,135,0,0
152.93,152930,29.169,1.173,34.215237,0.052,-0.009,0.004,-0.02,0,-0.001,0.534,81.338,27.41,0.981109499,99410.92,51.76,-10.766,4.672,-70.566,1.098571429,-0.4767346939,7.200612245,0,0,0,1,0,0,0,0,0,0,135,0,0
153.431,153431,29.522,0.808,23.853776,0.047,-0.009,0.005,-0.018,0,-0.003,0.532,81.374,27.43,0.980295584,99328.45,51.82,-10.191,2.91,-68.68,1.039897959,-0.2969387755,7.008163265,0,0,0,1,0,0,0,0,0,0,135,0,0
153.931,153931,29.522,0.808,23.853776,0.047,-0.009,0.005,-0.018,0,-0.003,0.532,81.374,27.43,0.980295584,99328.45,51.82,-10.191,2.91,-68.68,1.039897959,-0.2969387755,7.008163265,0,0,0,1,0,0,0,0,0,0,135,0,0
154.431,154431,29.456,0.993,29.249808,0.046,-0.01,0.005,-0.023,0,-0.003,0.536,81.428,27.46,0.979358204,99233.47,51.84,-10.418,2.145,-68.23,1.063061224,-0.218877551,6.962244898,0,0,0,1,0,0,0,0,0,0,135,0,0
154.931,154931,29.529,0.812,23.977548,0.043,-0.009,0.005,-0.02,0,-0.001,0.536,81.482,27.49,0.978650284,99161.74,51.86,-8.887,1.684,-68.879,0.9068367347,-0.1718367347,7.028469388,0,0,0,1,0,0,0,0,0,0,135,0,0
155.431,155431,29.389,0.993,29.183277,0.041,-0.009,0.005,-0.02,0,-0.001,0.534,81.518,27.51,0.977962102,99092.01,51.86,-8.426,0.727,-67.039,0.8597959184,-0.07418367347,6.840714286,0,0,0,1,0,0,0,0,0,0,135,0,0
155.931,155931,29.528,0.808,23.858624,0.039,-0.008,0.005,-0.02,0,-0.001,0.532,81.554,27.53,0.977201382,99014.93,51.86,-9.883,0.766,-67.492,1.008469388,-0.07816326531,6.886938776,0,0,0,1,0,0,0,0,0,0,135,0,0
156.431,156431,29.524,0.813,24.003012,0.038,-0.009,0.004,-0.018,0,-0.003,0.534,81.59,27.55,0.976383814,98932.09,51.84,-10.191,0.305,-66.844,1.039897959,-0.03112244898,6.820816327,0,0,0,1,0,0,0,0,0,0,135,0,0
156.931,156931,29.501,0.992,29.264992,0.034,-0.009,0.006,-0.018,0,-0.003,0.532,81.626,27.57,0.975718628,98864.69,51.83,-9.691,-0.422,-65.316,0.988877551,0.04306122449,6.664897959,0,0,0,1,0,0,0,0,0,0,135,0,0
157.431,157431,29.483,0.98,28.89334,0.032,-0.009,0.005,-0.02,0,-0.001,0.532,81.68,27.6,0.974810757,98772.7,51.8,-9.73,-0.344,-65.543,0.9928571429,0.03510204082,6.688061224,0,0,0,1,0,0,0,0,0,0,135,0,0
157.931,157931,29.483,0.98,28.89334,0.032,-0.009,0.005,-0.02,0,-0.001,0.532,81.68,27.6,0.974810757,98772.7,51.8,-9.73,-0.344,-65.543,0.9928571429,0.03510204082,6.688061224,0,0,0,1,0,0,0,0,0,0,135,0,0
158.431,158431,29.397,0.934,27.456798,0.03,-0.009,0.005,-0.02,0,-0.003,0.53,81.716,27.62,0.974002073,98690.76,51.76,-9.078,-0.805,-64.434,0.9263265306,0.08214285714,6.574897959,0,0,0,1,0,0,0,0,0,0,135,0,0
158.931,158931,29.513,0.822,24.259686,0.029,-0.009,0.005,-0.021,0,-0.001,0.53,81.752,27.64,0.973270762,98616.66,51.72,-9.652,-1.035,-64.285,0.9848979592,0.1056122449,6.559693878,0,0,0,1,0,0,0,0,0,0,135,0,0
159.431,159431,29.426,0.939,27.631014,0.029,-0.009,0.006,-0.024,0,0,0.534,81.788,27.66,0.972489514,98537.5,51.67,-9.691,-1.418,-63.895,0.988877551,0.1446938776,6.519897959,0,0,0,1,0,0,0,0,0,0,135,0,0
159.931,159931,29.14,1.209,35.23026,0.025,-0.009,0.005,-0.021,0,-0.003,0.53,81.824,27.68,0.971672243,98454.69,51.63,-9.348,-1.301,-64.43,0.953877551,0.132755102,6.574489796,0,0,0,1,0,0,0,0,0,0,135,0,0
160.432,160432,29.449,0.807,23.765343,0.024,-0.009,0.004,-0.018,0,-0.001,0.532,81.86,27.7,0.970943795,98380.88,51.59,-9.348,-1.34,-64.434,0.953877551,0.1367346939,6.574897959,0,0,0,1,0,0,0,0,0,0,135,0,0
160.932,160932,29.449,0.807,23.765343,0.024,-0.009,0.004,-0.018,0,-0.001,0.532,81.86,27.7,0.970943795,98380.88,51.59,-9.348,-1.34,-64.434,0.953877551,0.1367346939,6.574897959,0,0,0,1,0,0,0,0,0,0,135,0,0
161.432,161432,29.16,1.182,34.46712,0.025,-0.009,0.006,-0.024,0,-0.001,0.534,81.95,27.75,0.970188798,98304.38,51.55,-9.156,-1.914,-63.203,0.9342857143,0.1953061224,6.449285714,0,0,0,1,0,0,0,0,0,0,135,0,0
161.932,161932,29.395,0.95,27.92525,0.021,-0.009,0.006,-0.013,0,-0.001,0.532,82.004,27.78,0.969306193,98214.95,51.48,-8.965,-1.914,-62.902,0.9147959184,0.1953061224,6.418571429,0,0,0,1,0,0,0,0,0,0,135,0,0
162.432,162432,29.437,0.9,26.4933,0.021,-0.009,0.006,-0.021,0,-0.001,0.534,82.04,27.8,0.968623736,98145.8,51.44,-9.387,-1.648,-63.477,0.9578571429,0.1681632653,6.477244898,0,0,0,1,0,0,0,0,0,0,135,0,0
162.932,162932,29.39,0.835,24.54065,0.02,-0.009,0.006,-0.018,0,-0.003,0.534,82.076,27.82,0.967834592,98065.84,51.39,-9.461,-1.762,-63.246,0.9654081633,0.1797959184,6.453673469,0,0,0,1,0,0,0,0,0,0,135,0,0
163.432,163432,29.386,0.944,27.740384,0.02,-0.009,0.005,-0.016,0,-0.003,0.534,82.112,27.84,0.96710644,97992.06,51.34,-9.461,-1.953,-63.098,0.9654081633,0.1992857143,6.438571429,0,0,0,1,0,0,0,0,0,0,135,0,0
163.941,163941,29.478,0.853,25.144734,0.02,-0.011,0.005,-0.019,0,-0.001,0.534,82.166,27.87,0.966308907,97911.25,51.27,-9.195,-1.914,-62.863,0.9382653061,0.1953061224,6.414591837,0,0,0,1,0,0,0,0,0,0,135,0,0
164.447,164447,29.494,0.829,24.450526,0.019,-0.01,0.004,-0.019,0,-0.001,0.534,82.202,27.89,0.965582334,97837.63,51.24,-8.926,-2.262,-62.211,0.9108163265,0.2308163265,6.348061224,0,0,0,1,0,0,0,0,0,0,135,0,0
164.947,164947,29.494,0.829,24.450526,0.019,-0.01,0.004,-0.019,0,-0.001,0.534,82.202,27.89,0.965582334,97837.63,51.24,-8.926,-2.262,-62.211,0.9108163265,0.2308163265,6.348061224,0,0,0,1,0,0,0,0,0,0,135,0,0
165.447,165447,29.465,0.852,25.10418,0.018,-0.009,0.005,-0.019,0,-0.001,0.534,82.256,27.92,0.964857932,97764.23,51.19,-9.156,-2.184,-61.98,0.9342857143,0.2228571429,6.324489796,0,0,0,1,0,0,0,0,0,0,135,0,0
165.947,165947,29.491,0.844,24.890404,0.016,-0.009,0.005,-0.018,0,-0.003,0.532,82.292,27.94,0.964018949,97679.22,51.13,-9.039,-2.262,-62.02,0.9223469388,0.2308163265,6.328571429,0,0,0,1,0,0,0,0,0,0,135,0,0
166.447,166447,29.493,0.827,24.390711,0.015,-0.01,0.006,-0.019,0,-0.001,0.532,82.328,27.96,0.963272144,97603.55,51.09,-9.078,-2.375,-61.941,0.9263265306,0.2423469388,6.320510204,0,0,0,1,0,0,0,0,0,0,135,0,0
166.947,166947,29.486,0.832,24.532352,0.018,-0.009,0.005,-0.016,0,-0.003,0.534,82.364,27.98,0.962481915,97523.48,51.04,-9.004,-2.262,-61.98,0.9187755102,0.2308163265,6.324489796,0,0,0,1,0,0,0,0,0,0,135,0,0
167.468,167468,29.487,0.824,24.297288,0.015,-0.009,0.004,-0.016,0,-0.003,0.534,82.4,28,0.96173659,97447.96,50.99,-8.887,-2.262,-61.832,0.9068367347,0.2308163265,6.309387755,0,0,0,1,0,0,0,0,0,0,135,0,0
167.968,167968,29.487,0.824,24.297288,0.015,-0.009,0.004,-0.016,0,-0.003,0.534,82.4,28,0.96173659,97447.96,50.99,-8.887,-2.262,-61.832,0.9068367347,0.2308163265,6.309387755,0,0,0,1,0,0,0,0,0,0,135,0,0
168.468,168468,29.496,0.83,24.48168,0.014,-0.009,0.006,-0.021,0,-0.003,0.534,82.454,28.03,0.960970738,97370.36,50.94,-9.078,-2.336,-61.832,0.9263265306,0.2383673469,6.309387755,0,0,0,1,0,0,0,0,0,0,135,0,0
168.968,168968,29.484,0.835,24.61914,0.014,-0.009,0.005,-0.019,0,-0.003,0.532,82.49,28.05,0.960103824,97282.52,50.89,-9.004,-2.223,-61.715,0.9187755102,0.2268367347,6.29744898,0,0,0,1,0,0,0,0,0,0,135,0,0
169.468,169468,29.349,0.877,25.739073,0.014,-0.009,0.005,-0.018,0,0,0.534,82.526,28.07,0.959427782,97214.02,50.84,-8.848,-2.414,-61.484,0.9028571429,0.2463265306,6.273877551,0,0,0,1,0,0,0,0,0,0,135,0,0
169.968,169968,29.489,0.833,24.564337,0.013,-0.01,0.004,-0.02,0,-0.001,0.534,82.562,28.09,0.958690353,97139.3,50.81,-9.004,-2.375,-61.25,0.9187755102,0.2423469388,6.25,0,0,0,1,0,0,0,0,0,0,135,0,0
170.468,170468,29.48,0.862,25.41176,0.013,-0.009,0.005,-0.016,0,0,0.534,82.616,28.12,0.957973156,97066.63,50.75,-9.004,-2.414,-61.367,0.9187755102,0.2463265306,6.261938776,0,0,0,1,0,0,0,0,0,0,135,0,0
170.969,170969,29.04,1.27,36.8808,0.013,-0.009,0.005,-0.019,0,-0.001,0.532,82.67,28.15,0.957201678,96988.46,50.69,-8.965,-2.375,-61.406,0.9147959184,0.2423469388,6.265918367,0,0,0,1,0,0,0,0,0,0,135,0,0
171.469,171469,29.04,1.27,36.8808,0.013,-0.009,0.005,-0.019,0,-0.001,0.532,82.67,28.15,0.957201678,96988.46,50.69,-8.965,-2.375,-61.406,0.9147959184,0.2423469388,6.265918367,0,0,0,1,0,0,0,0,0,0,135,0,0
171.969,171969,28.722,1.589,45.639258,0.013,-0.008,0.005,-0.018,0,-0.001,0.534,82.706,28.17,0.956416284,96908.88,50.65,-8.926,-2.527,-61.215,0.9108163265,0.2578571429,6.246428571,0,0,0,1,0,0,0,0,0,0,135,0,0
172.469,172469,28.644,1.673,47.921412,0.013,-0.009,0.005,-0.018,0,-0.001,0.534,82.742,28.19,0.955559635,96822.08,50.58,-8.926,-2.488,-61.102,0.9108163265,0.253877551,6.234897959,0,0,0,1,0,0,0,0,0,0,135,0,0
172.969,172969,29.459,0.837,24.657183,0.013,-0.009,0.005,-0.018,0,-0.001,0.534,82.796,28.22,0.954799704,96745.08,50.55,-8.813,-2.566,-61.102,0.8992857143,0.2618367347,6.234897959,0,0,0,1,0,0,0,0,0,0,135,0,0
173.469,173469,29.47,0.834,24.57798,0.011,-0.01,0.005,-0.023,0,-0.003,0.534,82.832,28.24,0.954075401,96671.69,50.5,-8.813,-2.527,-60.984,0.8992857143,0.2578571429,6.222857143,0,0,0,1,0,0,0,0,0,0,135,0,0
173.969,173969,29.474,0.837,24.669738,0.011,-0.008,0.005,-0.023,0,-0.003,0.534,82.868,28.26,0.953345867,96597.77,50.46,-8.773,-2.453,-61.063,0.8952040816,0.2503061224,6.230918367,0,0,0,1,0,0,0,0,0,0,135,0,0
174.469,174469,29.474,0.837,24.669738,0.011,-0.008,0.005,-0.023,0,-0.003,0.534,82.868,28.26,0.953345867,96597.77,50.46,-8.773,-2.453,-61.063,0.8952040816,0.2503061224,6.230918367,0,0,0,1,0,0,0,0,0,0,135,0,0
174.969,174969,29.479,0.828,24.408612,0.013,-0.009,0.005,-0.018,0,-0.004,0.534,82.922,28.29,0.952596891,96521.88,50.42,-8.773,-2.488,-60.871,0.8952040816,0.253877551,6.211326531,0,0,0,1,0,0,0,0,0,0,135,0,0
175.469,175469,29.461,0.853,25.130233,0.013,-0.009,0.005,-0.019,0,-0.003,0.534,82.958,28.31,0.951819689,96443.13,50.36,-8.813,-2.375,-60.949,0.8992857143,0.2423469388,6.219285714,0,0,0,1,0,0,0,0,0,0,135,0,0
175.969,175969,29.485,0.815,24.030275,0.011,-0.009,0.006,-0.018,0,-0.001,0.534,83.012,28.34,0.951117493,96371.98,50.36,-8.773,-2.375,-60.793,0.8952040816,0.2423469388,6.203367347,0,0,0,1,0,0,0,0,0,0,135,0,0
176.469,176469,29.222,0.852,24.897144,0.01,-0.009,0.006,-0.019,0,-0.003,0.534,83.048,28.36,0.95022038,96281.08,50.28,-8.813,-2.414,-60.828,0.8992857143,0.2463265306,6.206938776,0,0,0,1,0,0,0,0,0,0,135,0,0
176.974,176974,29.444,0.863,25.410172,0.01,-0.009,0.006,-0.02,0,-0.001,0.534,83.102,28.39,0.949470417,96205.09,50.24,-8.773,-2.297,-60.828,0.8952040816,0.2343877551,6.206938776,0,0,0,1,0,0,0,0,0,0,135,0,0
177.474,177474,29.444,0.863,25.410172,0.01,-0.009,0.006,-0.02,0,-0.001,0.534,83.102,28.39,0.949470417,96205.09,50.24,-8.773,-2.297,-60.828,0.8952040816,0.2343877551,6.206938776,0,0,0,1,0,0,0,0,0,0,135,0,0
177.974,177974,29.464,0.832,24.514048,0.011,-0.009,0.005,-0.016,0,-0.003,0.534,83.138,28.41,0.94873131,96130.2,50.2,-8.813,-2.453,-60.723,0.8992857143,0.2503061224,6.19622449,0,0,0,1,0,0,0,0,0,0,135,0,0
178.474,178474,29.437,0.853,25.109761,0.011,-0.009,0.006,-0.016,0,-0.001,0.536,83.174,28.43,0.947980854,96054.16,50.17,-8.813,-2.336,-60.723,0.8992857143,0.2383673469,6.19622449,0,0,0,1,0,0,0,0,0,0,135,0,0
178.974,178974,29.455,0.839,24.712745,0.009,-0.009,0.006,-0.018,0,-0.001,0.534,83.228,28.46,0.947257735,95980.89,50.12,-8.773,-2.488,-60.645,0.8952040816,0.253877551,6.188265306,0,0,0,1,0,0,0,0,0,0,135,0,0
179.474,179474,29.462,0.852,25.101624,0.011,-0.009,0.006,-0.021,0,-0.003,0.532,83.264,28.48,0.946503331,95904.45,50.07,-8.773,-2.414,-60.684,0.8952040816,0.2463265306,6.192244898,0,0,0,1,0,0,0,0,0,0,135,0,0
179.974,179974,29.468,0.83,24.45844,0.01,-0.009,0.005,-0.016,0,-0.001,0.534,83.3,28.5,0.945812287,95834.43,50.02,-8.734,-2.488,-60.602,0.8912244898,0.253877551,6.183877551,0,0,0,1,0,0,0,0,0,0,135,0,0
180.474,180474,29.468,0.83,24.45844,0.01,-0.009,0.005,-0.016,0,-0.001,0.534,83.3,28.5,0.945812287,95834.43,50.02,-8.734,-2.488,-60.602,0.8912244898,0.253877551,6.183877551,0,0,0,1,0,0,0,0,0,0,135,0,0
180.974,180974,29.474,0.862,25.406588,0.01,-0.009,0.006,-0.02,0,-0.003,0.534,83.354,28.53,0.944910831,95743.09,49.92,-8.773,-2.488,-60.602,0.8952040816,0.253877551,6.183877551,0,0,0,1,0,0,0,0,0,0,135,0,0
181.474,181474,29.472,0.835,24.60912,0.01,-0.008,0.005,-0.016,0,-0.003,0.534,83.408,28.56,0.944196891,95670.75,49.92,-8.695,-2.527,-60.484,0.887244898,0.2578571429,6.171836735,0,0,0,1,0,0,0,0,0,0,135,0,0
181.974,181974,29.38,0.845,24.8261,0.01,-0.009,0.005,-0.02,0,-0.001,0.534,83.444,28.58,0.943432618,95593.31,49.88,-8.734,-2.488,-60.563,0.8912244898,0.253877551,6.179897959,0,0,0,1,0,0,0,0,0,0,135,0,0
182.474,182474,29.461,0.827,24.364247,0.011,-0.01,0.004,-0.019,0,-0.003,0.534,83.48,28.6,0.942748384,95523.98,49.83,-8.695,-2.488,-60.523,0.887244898,0.253877551,6.175816327,0,0,0,1,0,0,0,0,0,0,135,0,0
182.974,182974,29.458,0.832,24.509056,0.01,-0.009,0.005,-0.016,0,-0.003,0.534,83.516,28.62,0.941939798,95442.05,49.78,-8.734,-2.527,-60.445,0.8912244898,0.2578571429,6.167857143,0,0,0,1,0,0,0,0,0,0,135,0,0
183.474,183474,29.458,0.832,24.509056,0.01,-0.009,0.005,-0.016,0,-0.003,0.534,83.516,28.62,0.941939798,95442.05,49.78,-8.734,-2.527,-60.445,0.8912244898,0.2578571429,6.167857143,0,0,0,1,0,0,0,0,0,0,135,0,0
183.974,183974,29.442,0.85,25.0257,0.01,-0.009,0.006,-0.018,0,-0.001,0.534,83.552,28.64,0.941215199,95368.63,49.74,-8.734,-2.488,-60.41,0.8912244898,0.253877551,6.164285714,0,0,0,1,0,0,0,0,0,0,135,0,0
184.474,184474,29.442,0.849,24.996258,0.01,-0.009,0.006,-0.019,0,-0.003,0.534,83.588,28.66,0.9404981,95295.97,49.71,-8.695,-2.527,-60.406,0.887244898,0.2578571429,6.163877551,0,0,0,1,0,0,0,0,0,0,135,0,0
184.974,184974,29.421,0.844,24.831324,0.01,-0.009,0.006,-0.016,0,-0.003,0.534,83.642,28.69,0.940075697,95253.17,49.67,-8.695,-2.453,-60.449,0.887244898,0.2503061224,6.168265306,0,0,0,1,0,0,0,0,0,0,135,0,0
185.474,185474,29.464,0.835,24.60244,0.01,-0.009,0.004,-0.019,0,-0.001,0.534,83.696,28.72,0.939718924,95217.02,49.77,-8.504,-2.91,-60.484,0.867755102,0.2969387755,6.171836735,0,0,0,1,0,0,0,0,0,0,135,0,0
185.974,185974,29.461,0.834,24.570474,0.009,-0.01,0.006,-0.019,0,-0.003,0.534,83.732,28.74,0.938934222,95137.51,49.86,1.035,-0.727,-16.203,-0.1056122449,0.07418367347,1.653367347,0,0,0,1,0,0,0,0,0,0,135,0,0
186.474,186474,29.461,0.834,24.570474,0.009,-0.01,0.006,-0.019,0,-0.003,0.534,83.732,28.74,0.938934222,95137.51,49.86,1.035,-0.727,-16.203,-0.1056122449,0.07418367347,1.653367347,0,0,0,1,0,0,0,0,0,0,135,0,0
186.974,186974,29.44,0.863,25.40672,0.009,-0.008,0.004,-0.016,0,-0.003,0.534,83.768,28.76,0.938089415,95051.91,49.92,0.535,-0.078,0.27,-0.05459183673,0.007959183673,-0.02755102041,0,0,0,1,0,0,0,0,0,0,135,0,0
187.474,187474,29.459,0.829,24.421511,0.01,-0.009,0.005,-0.018,0,0,0.534,83.804,28.78,0.937294449,94971.36,49.98,0.348,-0.078,0.191,-0.03551020408,0.007959183673,-0.01948979592,0,0,0,1,0,0,0,0,0,0,135,0,0
187.974,187974,29.456,0.835,24.59576,0.009,-0.01,0.005,-0.02,0,-0.003,0.536,83.84,28.8,0.936508265,94891.7,50.04,0.535,-0.113,-0.27,-0.05459183673,0.01153061224,0.02755102041,0,0,0,1,0,0,0,0,0,0,135,0,0
188.474,188474,29.391,0.908,26.687028,0.01,-0.009,0.005,-0.015,0,-0.003,0.534,83.894,28.83,0.935768369,94816.73,50.08,0.613,-0.113,-0.039,-0.06255102041,0.01153061224,0.003979591837,0,0,0,1,0,0,0,0,0,0,135,0,0
188.974,188974,29.436,0.835,24.57906,0.01,-0.01,0.005,-0.02,0,-0.001,0.534,83.93,28.85,0.934882507,94726.97,50.16,0.77,-0.152,-0.113,-0.07857142857,0.01551020408,0.01153061224,0,0,0,1,0,0,0,0,0,0,135,0,0
189.474,189474,29.436,0.835,24.57906,0.01,-0.01,0.005,-0.02,0,-0.001,0.534,83.93,28.85,0.934882507,94726.97,50.16,0.77,-0.152,-0.113,-0.07857142857,0.01551020408,0.01153061224,0,0,0,1,0,0,0,0,0,0,135,0,0
189.974,189974,29.34,0.967,28.37178,0.01,-0.009,0.005,-0.016,0,-0.003,0.534,83.948,28.86,0.934108167,94648.51,50.2,0.687,-0.113,-0.152,-0.07010204082,0.01153061224,0.01551020408,0,0,0,1,0,0,0,0,0,0,135,0,0
190.474,190474,29.427,0.857,25.218939,0.009,-0.01,0.005,-0.019,0,-0.003,0.534,83.984,28.88,0.933477325,94584.59,50.23,0.648,-0.039,-0.191,-0.06612244898,0.003979591837,0.01948979592,0,0,0,1,0,0,0,0,0,0,135,0,0
190.974,190974,29.394,0.917,26.954298,0.009,-0.009,0.005,-0.018,0,-0.001,0.534,84.056,28.92,0.933107229,94547.09,50.25,0.687,0.039,-0.078,-0.07010204082,-0.003979591837,0.007959183673,0,0,0,1,0,0,0,0,0,0,135,0,0
191.474,191474,29.449,0.838,24.678262,0.01,-0.009,0.005,-0.014,0,-0.001,0.536,84.092,28.94,0.932610215,94496.73,50.25,0.844,0.152,0.039,-0.08612244898,-0.01551020408,-0.003979591837,0,0,0,1,0,0,0,0,0,0,135,0,0
191.974,191974,29.33,0.96,28.1568,0.009,-0.009,0.005,-0.016,0,-0.003,0.534,84.128,28.96,0.931993289,94434.22,50.31,0.687,-0.113,-0.152,-0.07010204082,0.01153061224,0.01551020408,0,0,0,1,0,0,0,0,0,0,135,0,0
192.474,192474,29.33,0.96,28.1568,0.009,-0.009,0.005,-0.016,0,-0.003,0.534,84.128,28.96,0.931993289,94434.22,50.31,0.687,-0.113,-0.152,-0.07010204082,0.01153061224,0.01551020408,0,0,0,1,0,0,0,0,0,0,135,0,0
192.974,192974,29.449,0.835,24.589915,0.009,-0.009,0.005,-0.019,0,-0.001,0.534,84.164,28.98,0.931358302,94369.88,50.33,0.687,-0.113,-0.152,-0.07010204082,0.01153061224,0.01551020408,0,0,0,1,0,0,0,0,0,0,135,0,0
193.474,193474,29.376,0.963,28.289088,0.013,-0.009,0.005,-0.015,0,0,0.53,83.93,28.85,0.930359931,94268.72,50.31,0.648,-0.152,-0.191,-0.06612244898,0.01551020408,0.01948979592,0,0,0,1,0,0,0,0,0,0,135,0,0
193.974,193974,29.415,0.995,29.267925,0.015,-0.009,0.004,-0.016,0,0,0.534,84.002,28.89,0.929619245,94193.67,50.31,0.727,-0.039,0,-0.07418367347,0.003979591837,0,0,0,0,1,0,0,0,0,0,0,135,0,0
194.474,194474,29.44,0.889,26.17216,0.016,-0.009,0.005,-0.019,0,-0.001,0.528,84.038,28.91,0.92892228,94123.05,50.32,0.613,-0.039,0,-0.06255102041,0.003979591837,0,0,0,0,1,0,0,0,0,0,0,135,0,0
194.974,194974,29.436,0.889,26.168604,0.019,-0.01,0.005,-0.018,0,0.002,0.534,84.092,28.94,0.928182877,94048.13,50.31,0.691,-0.113,-0.191,-0.07051020408,0.01153061224,0.01948979592,0,0,0,1,0,0,0,0,0,0,135,0,0
195.474,195474,29.436,0.889,26.168604,0.019,-0.01,0.005,-0.018,0,0.002,0.534,84.092,28.94,0.928182877,94048.13,50.31,0.691,-0.113,-0.191,-0.07051020408,0.01153061224,0.01948979592,0,0,0,1,0,0,0,0,0,0,135,0,0
195.974,195974,29.448,0.912,26.856576,0.02,-0.009,0.005,-0.019,0,-0.001,0.532,84.128,28.96,0.927492129,93978.14,50.27,0.687,-0.113,-0.152,-0.07010204082,0.01153061224,0.01551020408,0,0,0,1,0,0,0,0,0,0,135,0,0
196.474,196474,29.431,0.987,29.048397,0.021,-0.009,0.006,-0.019,0,-0.001,0.536,84.164,28.98,0.926809178,93908.94,50.25,0.691,-0.152,-0.191,-0.07051020408,0.01551020408,0.01948979592,0,0,0,1,0,0,0,0,0,0,135,0,0
196.974,196974,29.445,0.898,26.44161,0.021,-0.009,0.006,-0.018,0,0.002,0.536,84.182,28.99,0.926092869,93836.36,50.21,0.648,-0.113,-0.191,-0.06612244898,0.01153061224,0.01948979592,0,0,0,1,0,0,0,0,0,0,135,0,0
197.474,197474,29.429,0.96,28.25184,0.024,-0.008,0.006,-0.019,0,-0.003,0.536,84.326,29.07,0.925345571,93760.64,50.23,0.613,-0.113,-0.113,-0.06255102041,0.01153061224,0.01153061224,0,0,0,1,0,0,0,0,0,0,135,0,0
197.974,197974,29.442,0.838,24.672396,0.024,-0.009,0.005,-0.019,0,-0.003,0.538,84.128,28.96,0.924565211,93681.57,50.21,0.691,-0.113,-0.191,-0.07051020408,0.01153061224,0.01948979592,0,0,0,1,0,0,0,0,0,0,135,0,0
198.474,198474,29.394,0.922,27.101268,0.024,-0.008,0.005,-0.018,0,-0.004,0.536,84.182,28.99,0.923879201,93612.06,50.19,0.687,-0.113,-0.113,-0.07010204082,0.01153061224,0.01153061224,0,0,0,1,0,0,0,0,0,0,135,0,0
198.974,198974,29.394,0.922,27.101268,0.024,-0.008,0.005,-0.018,0,-0.004,0.536,84.182,28.99,0.923879201,93612.06,50.19,0.687,-0.113,-0.113,-0.07010204082,0.01153061224,0.01153061224,0,0,0,1,0,0,0,0,0,0,135,0,0
199.474,199474,29.361,0.924,27.129564,0.024,-0.009,0.005,-0.021,0,-0.003,0.534,84.218,29.01,0.923125586,93535.7,50.16,0.613,-0.039,-0.152,-0.06255102041,0.003979591837,0.01551020408,0,0,0,1,0,0,0,0,0,0,135,0,0
199.974,199974,29.326,0.95,27.8597,0.024,-0.009,0.006,-0.015,0,-0.003,0.534,84.272,29.04,0.922489218,93471.22,50.14,0.727,-0.113,-0.113,-0.07418367347,0.01153061224,0.01153061224,0,0,0,1,0,0,0,0,0,0,135,0,0
200.474,200474,29.436,0.84,24.72624,0.021,-0.008,0.005,-0.019,0,-0.004,0.534,84.668,29.26,0.922028621,93424.55,50.11,0.613,-0.078,-0.113,-0.06255102041,0.007959183673,0.01153061224,0,0,0,1,0,0,0,0,0,0,135,0,0
200.974,200974,29.249,1.027,30.038723,0.02,-0.009,0.005,-0.016,0,-0.003,0.534,84.704,29.28,0.921406958,93361.56,50.08,0.844,-0.039,-0.078,-0.08612244898,0.003979591837,0.007959183673,0,0,0,1,0,0,0,0,0,0,135,0,0
201.474,201474,29.361,0.928,27.247008,0.021,-0.009,0.005,-0.018,0,-0.001,0.534,84.74,29.3,0.920568863,93276.64,50.04,0.77,-0.27,-0.078,-0.07857142857,0.02755102041,0.007959183673,0,0,0,1,0,0,0,0,0,0,135,0,0
201.974,201974,29.361,0.928,27.247008,0.021,-0.009,0.005,-0.018,0,-0.001,0.534,84.74,29.3,0.920568863,93276.64,50.04,0.77,-0.27,-0.078,-0.07857142857,0.02755102041,0.007959183673,0,0,0,1,0,0,0,0,0,0,135,0,0
202.474,202474,29.436,0.837,24.637932,0.019,-0.009,0.004,-0.018,0,-0.001,0.534,84.776,29.32,0.919841204,93202.91,50.01,0.691,-0.113,-0.191,-0.07051020408,0.01153061224,0.01948979592,0,0,0,1,0,0,0,0,0,0,135,0,0
202.974,202974,29.436,0.837,24.637932,0.018,-0.01,0.005,-0.016,0,-0.003,0.534,84.812,29.34,0.919176413,93135.55,49.97,0.648,-0.078,-0.191,-0.06612244898,0.007959183673,0.01948979592,0,0,0,1,0,0,0,0,0,0,135,0,0
203.474,203474,29.426,0.839,24.688414,0.018,-0.009,0.005,-0.015,0,0,0.534,84.848,29.36,0.918569553,93074.06,49.96,0.492,-0.113,-0.23,-0.05020408163,0.01153061224,0.02346938776,0,0,0,1,0,0,0,0,0,0,135,0,0
203.974,203974,29.391,0.855,25.129305,0.018,-0.009,0.004,-0.019,0,-0.001,0.534,84.884,29.38,0.917905848,93006.81,49.93,0.766,-0.078,-0.23,-0.07816326531,0.007959183673,0.02346938776,0,0,0,1,0,0,0,0,0,0,135,0,0
204.474,204474,29.423,0.869,25.568587,0.018,-0.01,0.005,-0.019,0,-0.004,0.534,84.92,29.4,0.917226055,92937.93,49.89,0.648,-0.113,-0.191,-0.06612244898,0.01153061224,0.01948979592,0,0,0,1,0,0,0,0,0,0,135,0,0
204.974,204974,29.427,0.84,24.71868,0.015,-0.01,0.005,-0.019,0,-0.003,0.534,84.956,29.42,0.916500962,92864.46,49.87,0.57,-0.152,-0.113,-0.05816326531,0.01551020408,0.01153061224,0,0,0,1,0,0,0,0,0,0,135,0,0
205.474,205474,29.427,0.84,24.71868,0.015,-0.01,0.005,-0.019,0,-0.003,0.534,84.956,29.42,0.916500962,92864.46,49.87,0.57,-0.152,-0.113,-0.05816326531,0.01551020408,0.01153061224,0,0,0,1,0,0,0,0,0,0,135,0,0
205.974,205974,29.356,0.929,27.271724,0.015,-0.011,0.005,-0.019,0,-0.001,0.534,85.01,29.45,0.915832223,92796.7,49.84,0.652,-0.078,-0.152,-0.06653061224,0.007959183673,0.01551020408,0,0,0,1,0,0,0,0,0,0,135,0,0
206.474,206474,29.423,0.829,24.391667,0.013,-0.009,0.005,-0.016,0,-0.004,0.534,85.064,29.48,0.915015544,92713.95,49.82,0.652,-0.113,-0.113,-0.06653061224,0.01153061224,0.01153061224,0,0,0,1,0,0,0,0,0,0,135,0,0
206.974,206974,29.431,0.84,24.72204,0.015,-0.009,0.006,-0.021,0,-0.003,0.532,85.1,29.5,0.914346015,92646.11,49.79,0.691,-0.191,-0.383,-0.07051020408,0.01948979592,0.03908163265,0,0,0,1,0,0,0,0,0,0,135,0,0
207.474,207474,29.431,0.832,24.486592,0.014,-0.01,0.006,-0.016,0,-0.004,0.534,85.136,29.52,0.913693363,92579.98,49.75,0.691,-0.23,-0.27,-0.07051020408,0.02346938776,0.02755102041,0,0,0,1,0,0,0,0,0,0,135,0,0
207.979,207979,29.421,0.847,24.919587,0.015,-0.009,0.005,-0.016,0,-0.004,0.534,85.172,29.54,0.91297962,92507.66,49.72,0.57,-0.039,-0.383,-0.05816326531,0.003979591837,0.03908163265,0,0,0,1,0,0,0,0,0,0,135,0,0
208.487,208487,28.831,0.864,24.909984,28.89,0.653,0.006,-0.018,0,-0.003,0.534,85.208,29.56,0.91244984,92453.98,49.7,0.687,-0.113,0,-0.07010204082,0.01153061224,0,0,1,0,1,0,0,0,0,0,-0.028,135,0,1
208.987,208987,28.831,0.864,24.909984,28.89,0.653,0.006,-0.018,0,-0.003,0.534,85.208,29.56,0.91244984,92453.98,49.7,0.687,-0.113,0,-0.07010204082,0.01153061224,0,0,1,0,1,0,0,0,0,0,-0.093,135,0,1
209.487,209487,28.681,0.983,28.193423,28.731,0.808,0.005,-0.014,0,-0.001,0.534,85.244,29.58,0.911642635,92372.19,49.66,0.574,-0.344,0.23,-0.05857142857,0.03510204082,-0.02346938776,0,1,0,1,0,0,0,0,0,-0.155,135,0,1
209.987,209987,28.753,0.882,25.360146,28.847,0.755,0.006,-0.019,0,-0.004,0.534,85.28,29.6,0.910952085,92302.22,49.62,0.535,0.039,-0.113,-0.05459183673,-0.003979591837,0.01153061224,0,1,0,1,0,0,0,0,0,-0.22,135,0,1
210.487,210487,28.708,0.885,25.40658,28.744,0.817,0.004,-0.018,0,-0.003,0.532,85.316,29.62,0.910246928,92230.77,49.58,0.957,-0.113,0,-0.09765306122,0.01153061224,0,0,1,0,1,0,0,0,0,0,-0.281,135,0,1
210.987,210987,28.78,0.855,24.6069,28.879,0.745,0.006,-0.016,0,-0.003,0.536,85.352,29.64,0.909604441,92165.67,49.57,0.383,0.305,0.766,-0.03908163265,-0.03112244898,-0.07816326531,0,1,0,1,0,0,0,0,0,-0.346,135,0,1
211.507,211507,28.567,0.993,28.367031,28.706,0.808,0.006,-0.02,0,-0.004,0.536,85.388,29.66,0.908914977,92095.81,49.53,0.77,-0.305,-0.305,-0.07857142857,0.03112244898,0.03112244898,0,1,0,1,0,0,0,0,0,-0.413,135,0,1
212.007,212007,28.782,0.863,24.838866,28.851,0.754,0.005,-0.018,0,-0.003,0.534,85.424,29.68,0.908378386,92041.44,49.48,1.336,-0.23,-0.078,-0.1363265306,0.02346938776,0.007959183673,0,1,0,1,0,0,0,0,0,-0.474,135,0,1
212.51,212510,28.574,1.065,30.43131,28.691,0.817,0.006,-0.019,0,-0.003,0.532,85.46,29.7,0.907796102,91982.44,49.49,0.766,-0.078,-0.305,-0.07816326531,0.007959183673,0.03112244898,0,1,0,1,0,0,0,0,0,-0.539,135,0,1
213.01,213010,28.571,1.184,33.828064,28.609,0.909,0.006,-0.018,0,-0.001,0.536,85.478,29.71,0.907164767,91918.47,49.43,0.492,-0.191,-0.039,-0.05020408163,0.01948979592,0.003979591837,0,1,0,1,0,0,0,0,0,-0.601,135,0,1
213.51,213510,28.571,1.184,33.828064,28.609,0.909,0.006,-0.018,0,-0.001,0.536,85.478,29.71,0.907164767,91918.47,49.43,0.492,-0.191,-0.039,-0.05020408163,0.01948979592,0.003979591837,0,1,0,1,0,0,0,0,0,-0.666,135,0,1
214.01,214010,28.546,0.98,27.97508,28.549,0.963,0.005,-0.02,0,-0.001,0.534,85.532,29.74,0.906494843,91850.59,49.41,0.57,-0.078,-0.039,-0.05816326531,0.007959183673,0.003979591837,0,1,0,1,0,0,0,0,0,-0.728,135,0,1
214.51,214510,28.614,0.982,28.098948,28.63,0.883,0.005,-0.016,0,-0.001,0.536,85.568,29.76,0.905836763,91783.91,49.39,0.848,-0.113,-0.23,-0.08653061224,0.01153061224,0.02346938776,0,1,0,1,0,0,0,0,0,-0.793,135,0,1
215.01,215010,28.499,0.955,27.216545,28.535,0.965,0.006,-0.019,0,-0.004,0.534,85.604,29.78,0.905310437,91730.58,49.37,0.727,-0.113,0,-0.07418367347,0.01153061224,0,0,1,0,1,0,0,0,0,0,-0.854,135,0,1
215.51,215510,28.644,0.867,24.834348,28.615,0.894,0.005,-0.023,0,-0.003,0.534,85.64,29.8,0.904603504,91658.95,49.32,0.914,-0.191,0,-0.09326530612,0.01948979592,0,0,1,0,1,0,0,0,0,0,-0.919,135,0,1
216.01,216010,28.558,0.878,25.073924,28.55,0.965,0.005,-0.016,0,-0.001,0.536,85.676,29.82,0.903986084,91596.39,49.29,0.648,-0.078,-0.191,-0.06612244898,0.007959183673,0.01948979592,0,1,0,1,0,0,0,0,0,-0.98,135,0,1
216.51,216510,28.755,0.865,24.873075,28.571,0.887,0.005,-0.014,0,-0.003,0.534,85.73,29.85,0.903265828,91523.41,49.26,0.766,-0.078,-0.23,-0.07816326531,0.007959183673,0.02346938776,0,1,0,1,0,0,0,0,0,-1.047,135,0,1
217.01,217010,28.755,0.865,24.873075,28.571,0.887,0.005,-0.014,0,-0.003,0.534,85.73,29.85,0.903265828,91523.41,49.26,0.766,-0.078,-0.23,-0.07816326531,0.007959183673,0.02346938776,0,1,0,1,0,0,0,0,0,-1.112,135,0,1
217.51,217510,28.25,1.208,34.126,28.362,0.975,0.007,-0.019,0,-0.001,0.534,85.748,29.86,0.90249435,91445.24,49.24,0.613,-0.039,0.039,-0.06255102041,0.003979591837,-0.003979591837,0,1,0,1,0,0,0,0,0,-1.173,135,0,1
218.01,218010,28.624,0.88,25.18912,28.606,0.877,0.006,-0.019,0,-0.003,0.534,85.802,29.89,0.901823045,91377.22,49.2,0.691,-0.152,-0.191,-0.07051020408,0.01551020408,0.01948979592,0,1,0,1,0,0,0,0,0,-1.238,135,0,1
218.51,218510,28.556,0.868,24.786608,28.545,0.963,0.006,-0.018,0,-0.003,0.534,85.838,29.91,0.901189736,91313.05,49.17,0.609,-0.039,-0.305,-0.06214285714,0.003979591837,0.03112244898,0,1,0,1,0,0,0,0,0,-1.3,135,0,1
219.01,219010,28.375,1.193,33.851375,28.433,0.879,0.006,-0.016,0,-0.001,0.534,85.874,29.93,0.900516457,91244.83,49.14,0.766,-0.191,-0.113,-0.07816326531,0.01948979592,0.01153061224,0,1,0,1,0,0,0,0,0,-1.365,135,0,1
219.519,219519,28.54,0.869,24.80126,28.519,0.977,0.007,-0.015,0,-0.003,0.534,85.91,29.95,0.899819097,91174.17,49.1,0.574,-0.113,-0.191,-0.05857142857,0.01153061224,0.01948979592,0,1,0,1,0,0,0,0,0,-1.431,135,0,1
220.019,220019,28.596,0.889,25.421844,28.59,0.904,0.005,-0.016,0,-0.001,0.536,85.946,29.97,0.899337577,91125.38,49.08,0.383,-0.535,-0.535,-0.03908163265,0.05459183673,0.05459183673,0,1,0,1,0,0,0,0,0,-1.493,135,0,1
220.519,220519,28.596,0.889,25.421844,28.59,0.904,0.005,-0.016,0,-0.001,0.536,85.946,29.97,0.899337577,91125.38,49.08,0.383,-0.535,-0.535,-0.03908163265,0.05459183673,0.05459183673,0,1,0,1,0,0,0,0,0,-1.558,135,0,1
221.019,221019,28.535,0.869,24.796915,28.528,0.955,0.007,-0.018,0,-0.003,0.536,85.982,29.99,0.898655514,91056.27,49.05,0.648,-0.152,-0.191,-0.06612244898,0.01551020408,0.01948979592,0,1,0,1,0,0,0,0,0,-1.619,135,0,1
221.519,221519,28.673,0.862,24.716126,28.686,0.895,0.006,-0.011,0,-0.001,0.534,86.018,30.01,0.898012139,90991.08,49.01,0.73,-0.113,-0.191,-0.07448979592,0.01153061224,0.01948979592,0,1,0,1,0,0,0,0,0,-1.684,135,0,1
222.019,222019,28.538,0.892,25.455896,28.535,0.962,0.007,-0.014,0,-0.001,0.536,86.072,30.04,0.897231187,90911.95,48.97,0.687,-0.039,-0.113,-0.07010204082,0.003979591837,0.01153061224,0,1,0,1,0,0,0,0,0,-1.746,135,0,1
222.519,222519,28.634,0.87,24.91158,28.575,0.903,0.006,-0.015,0,-0.004,0.536,86.09,30.05,0.896545374,90842.46,48.94,0.613,0,0.078,-0.06255102041,0,-0.007959183673,0,1,0,1,0,0,0,0,0,-1.811,135,0,1
223.021,223021,28.539,0.867,24.743313,28.532,0.968,0.007,-0.018,0,-0.001,0.534,86.126,30.07,0.895893314,90776.39,48.92,0.73,-0.152,-0.23,-0.07448979592,0.01551020408,0.02346938776,0,1,0,1,0,0,0,0,0,-1.877,135,0,1
223.521,223521,28.539,0.867,24.743313,28.532,0.968,0.007,-0.018,0,-0.001,0.534,86.126,30.07,0.895893314,90776.39,48.92,0.73,-0.152,-0.23,-0.07448979592,0.01551020408,0.02346938776,0,1,0,1,0,0,0,0,0,-1.939,135,0,1
224.021,224021,28.499,0.892,25.421108,28.497,0.963,0.005,-0.014,0,-0.001,0.534,86.162,30.09,0.895231187,90709.3,48.88,0.77,-0.039,-0.27,-0.07857142857,0.003979591837,0.02755102041,0,1,0,1,0,0,0,0,0,-2.004,135,0,1
224.521,224521,28.504,0.877,24.998008,28.506,0.958,0.006,-0.014,0,-0.003,0.534,86.198,30.11,0.894719664,90657.47,48.84,0.652,-0.078,-0.152,-0.06653061224,0.007959183673,0.01551020408,0,1,0,1,0,0,0,0,0,-2.066,135,0,1
225.021,225021,28.569,0.879,25.112151,28.579,0.868,0.006,-0.015,0,-0.003,0.536,86.234,30.13,0.894008784,90585.44,48.83,0.648,-0.113,-0.23,-0.06612244898,0.01153061224,0.02346938776,0,1,0,1,0,0,0,0,0,-2.13,135,0,1
225.521,225521,28.534,0.877,25.024318,28.531,0.958,0.005,-0.015,0,-0.001,0.536,86.27,30.15,0.893397286,90523.48,48.79,0.766,0.039,-0.191,-0.07816326531,-0.003979591837,0.01948979592,0,1,0,1,0,0,0,0,0,-2.192,135,0,1
226.021,226021,28.67,0.862,24.71354,28.587,0.872,0.007,-0.009,0,-0.003,0.534,86.324,30.18,0.892615347,90444.25,48.76,0.727,0,-0.113,-0.07418367347,0,0.01153061224,0,1,0,1,0,0,0,0,0,-2.257,135,0,1
226.524,226524,28.529,0.893,25.476397,28.52,0.969,0.007,-0.014,0,-0.004,0.534,86.36,30.2,0.892009178,90382.83,48.72,0.535,-0.039,-0.113,-0.05459183673,0.003979591837,0.01153061224,0,1,0,1,0,0,0,0,0,-2.323,135,0,1
227.024,227024,28.583,0.87,24.86721,28.569,0.902,0.007,-0.013,0,-0.003,0.534,86.396,30.22,0.891462127,90327.4,48.7,0.465,-0.113,-0.23,-0.04744897959,0.01153061224,0.02346938776,0,1,0,1,0,0,0,0,0,-2.385,135,0,1
227.524,227524,28.583,0.87,24.86721,28.569,0.902,0.007,-0.013,0,-0.003,0.534,86.396,30.22,0.891462127,90327.4,48.7,0.465,-0.113,-0.23,-0.04744897959,0.01153061224,0.02346938776,0,1,0,1,0,0,0,0,0,-2.45,135,0,1
228.024,228024,28.495,0.987,28.124565,28.505,0.953,0.006,-0.011,0,-0.003,0.534,86.432,30.24,0.890853689,90265.75,48.65,0.613,-0.039,-0.152,-0.06255102041,0.003979591837,0.01551020408,0,1,0,1,0,0,0,0,0,-2.512,135,0,1
228.524,228524,28.504,0.877,24.998008,28.507,0.949,0.007,-0.011,0,-0.003,0.536,86.468,30.26,0.890232223,90202.78,48.65,0.809,-0.078,0.039,-0.08255102041,0.007959183673,-0.003979591837,0,1,0,1,0,0,0,0,0,-2.577,135,0,1
229.024,229024,28.507,0.973,27.737311,28.504,0.95,0.005,-0.011,0,-0.001,0.536,86.486,30.27,0.889621614,90140.91,48.61,0.687,-0.078,-0.113,-0.07010204082,0.007959183673,0.01153061224,0,1,0,1,0,0,0,0,0,-2.638,135,0,1
229.524,229524,28.584,0.875,25.011,28.581,0.862,0.007,-0.016,0,-0.003,0.536,86.54,30.3,0.888954651,90073.33,48.56,0.652,-0.113,-0.152,-0.06653061224,0.01153061224,0.01551020408,0,1,0,1,0,0,0,0,0,-2.703,135,0,1
230.024,230024,28.494,0.977,27.838638,28.509,0.947,0.007,-0.015,0,-0.003,0.536,86.576,30.32,0.888323908,90009.42,48.53,0.73,-0.113,-0.191,-0.07448979592,0.01153061224,0.01948979592,0,1,0,1,0,0,0,0,0,-2.765,135,0,1
230.524,230524,28.616,0.854,24.438064,28.595,0.855,0.006,-0.011,0,-0.004,0.536,86.612,30.34,0.887582235,89934.27,48.51,1.297,-0.113,-0.078,-0.1323469388,0.01153061224,0.007959183673,0,1,0,1,0,0,0,0,0,-2.831,135,0,1
231.024,231024,28.616,0.854,24.438064,28.595,0.855,0.006,-0.011,0,-0.004,0.536,86.612,30.34,0.887582235,89934.27,48.51,1.297,-0.113,-0.078,-0.1323469388,0.01153061224,0.007959183673,0,1,0,1,0,0,0,0,0,-2.896,135,0,1
231.524,231524,28.486,0.884,25.181624,28.486,0.948,0.006,-0.013,0,-0.001,0.534,86.648,30.36,0.886909746,89866.13,48.48,0.652,-0.078,-0.113,-0.06653061224,0.007959183673,0.01153061224,0,1,0,1,0,0,0,0,0,-2.958,135,0,1
232.024,232024,28.494,0.875,24.93225,28.49,0.957,0.006,-0.014,0,-0.003,0.534,86.684,30.38,0.886384505,89812.91,48.44,0.805,-0.23,-0.152,-0.08214285714,0.02346938776,0.01551020408,0,1,0,1,0,0,0,0,0,-3.022,135,0,1
232.524,232524,28.507,0.964,27.480748,28.511,0.948,0.005,-0.016,0,-0.001,0.534,86.72,30.4,0.885747249,89748.34,48.42,0.805,-0.152,-0.23,-0.08214285714,0.01551020408,0.02346938776,0,1,0,1,0,0,0,0,0,-3.084,135,0,1
233.024,233024,28.566,0.87,24.85242,28.55,0.893,0.006,-0.016,0,-0.003,0.536,86.756,30.42,0.885142364,89687.05,48.35,0.648,-0.113,-0.191,-0.06612244898,0.01153061224,0.01948979592,0,1,0,1,0,0,0,0,0,-3.149,135,0,1
233.524,233524,28.421,0.987,28.051527,28.388,0.948,0.007,-0.011,0,-0.001,0.534,86.792,30.44,0.884479743,89619.91,48.38,0.809,-0.113,-0.152,-0.08255102041,0.01153061224,0.01551020408,0,1,0,1,0,0,0,0,0,-3.21,135,0,1
234.024,234024,28.556,0.887,25.329172,28.554,0.895,0.006,-0.015,0,0,0.536,86.828,30.46,0.883827585,89553.83,48.33,0.492,0,-0.191,-0.05020408163,0,0.01948979592,0,1,0,1,0,0,0,0,0,-3.277,135,0,1
234.524,234524,28.556,0.887,25.329172,28.554,0.895,0.006,-0.015,0,0,0.536,86.828,30.46,0.883827585,89553.83,48.33,0.492,0,-0.191,-0.05020408163,0,0.01948979592,0,1,0,1,0,0,0,0,0,-3.342,135,0,1
235.024,235024,28.476,0.883,25.144308,28.485,0.939,0.007,-0.015,0,-0.003,0.534,86.882,30.49,0.883046928,89474.73,48.3,0.57,-0.113,-0.152,-0.05816326531,0.01153061224,0.01551020408,0,1,0,1,0,0,0,0,0,-3.404,135,0,1
235.524,235524,28.61,0.873,24.97653,28.616,0.893,0.007,-0.013,0,-0.003,0.534,86.918,30.51,0.88239773,89408.95,48.26,0.652,-0.113,0,-0.06653061224,0.01153061224,0,0,1,0,1,0,0,0,0,0,-3.468,135,0,1
236.024,236024,28.35,0.965,27.35775,28.51,0.942,0.007,-0.011,0,-0.001,0.534,86.954,30.53,0.881811103,89349.51,48.24,0.73,-0.152,-0.305,-0.07448979592,0.01551020408,0.03112244898,0,1,0,1,0,0,0,0,0,-3.53,135,0,1
236.524,236524,28.589,0.882,25.215498,28.628,0.89,0.007,-0.016,0,-0.004,0.534,86.99,30.55,0.881162398,89283.78,48.2,0.805,-0.191,-0.078,-0.08214285714,0.01948979592,0.007959183673,0,1,0,1,0,0,0,0,0,-3.595,135,0,1
237.032,237032,28.38,1.055,29.9409,28.478,0.957,0.006,-0.01,0,-0.003,0.536,87.026,30.57,0.880548335,89221.56,48.17,0.613,-0.078,-0.152,-0.06255102041,0.007959183673,0.01551020408,0,1,0,1,0,0,0,0,0,-3.661,135,0,1
237.532,237532,28.38,1.055,29.9409,28.478,0.957,0.006,-0.01,0,-0.003,0.536,87.026,30.57,0.880548335,89221.56,48.17,0.613,-0.078,-0.152,-0.06255102041,0.007959183673,0.01551020408,0,1,0,1,0,0,0,0,0,-3.723,135,0,1
238.032,238032,28.451,0.894,25.435194,28.462,0.945,0.009,-0.013,0,-0.001,0.536,87.062,30.59,0.879865088,89152.33,48.15,0.57,-0.23,-0.305,-0.05816326531,0.02346938776,0.03112244898,0,1,0,1,0,0,0,0,0,-3.788,135,0,1
238.532,238532,28.366,0.983,27.883778,28.409,0.94,0.007,-0.014,0,-0.001,0.534,87.098,30.61,0.879403405,89105.55,48.11,0.648,-0.113,-0.191,-0.06612244898,0.01153061224,0.01948979592,0,1,0,1,0,0,0,0,0,-3.85,135,0,1
239.032,239032,28.47,0.874,24.88278,28.479,0.933,0.007,-0.015,0,-0.001,0.536,87.116,30.62,0.878845004,89048.97,48.11,0.652,-0.113,-0.152,-0.06653061224,0.01153061224,0.01551020408,0,1,0,1,0,0,0,0,0,-3.915,135,0,1
239.532,239532,28.483,0.863,24.580829,28.48,0.957,0.007,-0.015,0,-0.003,0.536,87.17,30.65,0.878106094,88974.1,48.06,0.613,-0.078,-0.152,-0.06255102041,0.007959183673,0.01551020408,0,1,0,1,0,0,0,0,0,-3.977,135,0,1
240.032,240032,28.57,0.884,25.25588,28.558,0.867,0.007,-0.014,0,-0.003,0.534,87.242,30.69,0.87752904,88915.63,48.03,0.613,-0.078,-0.113,-0.06255102041,0.007959183673,0.01153061224,0,1,0,1,0,0,0,0,0,-4.042,135,0,1
240.532,240532,28.468,0.892,25.393456,28.486,0.944,0.006,-0.015,0,-0.001,0.536,87.278,30.71,0.876864742,88848.32,48,0.727,0,-0.113,-0.07418367347,0,0.01153061224,0,1,0,1,0,0,0,0,0,-4.103,135,0,1
241.032,241032,28.657,0.872,24.988904,28.642,0.874,0.007,-0.016,0,-0.003,0.536,87.314,30.73,0.876203405,88781.31,47.98,1.035,-0.039,0.113,-0.1056122449,0.003979591837,-0.01153061224,0,1,0,1,0,0,0,0,0,-4.17,135,0,1
241.532,241532,28.657,0.872,24.988904,28.642,0.874,0.007,-0.016,0,-0.003,0.536,87.314,30.73,0.876203405,88781.31,47.98,1.035,-0.039,0.113,-0.1056122449,0.003979591837,-0.01153061224,0,1,0,1,0,0,0,0,0,-4.235,135,0,1
242.032,242032,28.44,0.889,25.28316,28.452,0.945,0.007,-0.011,0,-0.001,0.536,87.332,30.74,0.875561806,88716.3,47.94,0.652,0.039,-0.152,-0.06653061224,-0.003979591837,0.01551020408,0,1,0,1,0,0,0,0,0,-4.297,135,0,1
242.532,242532,28.595,0.879,25.135005,28.622,0.87,0.007,-0.014,0,-0.001,0.536,87.386,30.77,0.8749887,88658.23,47.9,0.73,-0.152,-0.23,-0.07448979592,0.01551020408,0.02346938776,0,1,0,1,0,0,0,0,0,-4.361,135,0,1
243.032,243032,28.486,0.879,25.039194,28.491,0.94,0.007,-0.019,0,-0.003,0.536,87.386,30.77,0.874349766,88593.49,47.88,0.652,-0.152,-0.383,-0.06653061224,0.01551020408,0.03908163265,0,1,0,1,0,0,0,0,0,-4.423,135,0,1
243.532,243532,28.579,0.874,24.978046,28.538,0.875,0.007,-0.015,0,-0.003,0.536,87.422,30.79,0.87369662,88527.31,47.89,0.652,-0.152,-0.039,-0.06653061224,0.01551020408,0.003979591837,0,1,0,1,0,0,0,0,0,-4.488,135,0,1
244.035,244035,28.485,0.885,25.209225,28.486,0.935,0.009,-0.013,0,-0.004,0.536,87.476,30.82,0.872991957,88455.91,47.81,0.57,-0.152,-0.078,-0.05816326531,0.01551020408,0.007959183673,0,1,0,1,0,0,0,0,0,-4.554,135,0,1
244.535,244535,28.534,0.892,25.452328,28.545,0.853,0.007,-0.014,0,-0.001,0.534,87.512,30.84,0.872443425,88400.33,47.79,0.426,0,-0.152,-0.04346938776,0,0.01551020408,0,1,0,1,0,0,0,0,0,-4.616,135,0,1
245.035,245035,28.534,0.892,25.452328,28.545,0.853,0.007,-0.014,0,-0.001,0.534,87.512,30.84,0.872443425,88400.33,47.79,0.426,0,-0.152,-0.04346938776,0,0.01551020408,0,1,0,1,0,0,0,0,0,-4.681,135,0,1
245.535,245535,28.442,0.883,25.114286,28.449,0.942,0.007,-0.011,0,-0.001,0.536,87.548,30.86,0.87185808,88341.02,47.76,0.652,-0.039,-0.113,-0.06653061224,0.003979591837,0.01153061224,0,1,0,1,0,0,0,0,0,-4.743,135,0,1
246.035,246035,28.519,0.888,25.324872,28.534,0.862,0.007,-0.011,0,-0.003,0.536,87.584,30.88,0.871222206,88276.59,47.73,0.73,-0.191,-0.27,-0.07448979592,0.01948979592,0.02755102041,0,1,0,1,0,0,0,0,0,-4.808,135,0,1
246.535,246535,28.459,0.882,25.100838,28.46,0.954,0.007,-0.011,0,-0.001,0.534,87.62,30.9,0.870618011,88215.37,47.71,0.652,-0.113,-0.113,-0.06653061224,0.01153061224,0.01153061224,0,1,0,1,0,0,0,0,0,-4.87,135,0,1
247.035,247035,28.594,0.869,24.848186,28.541,0.859,0.007,-0.013,0,-0.003,0.536,87.674,30.93,0.869948384,88147.52,47.67,0.152,0.078,0,-0.01551020408,-0.007959183673,0,0,1,0,1,0,0,0,0,0,-4.934,135,0,1
247.539,247539,28.442,0.894,25.427148,28.45,0.954,0.009,-0.011,0,-0.003,0.536,87.692,30.94,0.869311818,88083.02,47.64,0.766,-0.078,-0.23,-0.07816326531,0.007959183673,0.02346938776,0,1,0,1,0,0,0,0,0,-5.001,135,0,1
248.039,248039,28.604,0.873,24.971292,28.596,0.764,0.007,-0.014,0,-0.003,0.534,87.746,30.97,0.868716704,88022.72,47.62,0.887,-0.078,-0.23,-0.09051020408,0.007959183673,0.02346938776,0,1,0,1,0,0,0,0,0,-5.063,135,0,1
248.539,248539,28.604,0.873,24.971292,28.596,0.764,0.007,-0.014,0,-0.003,0.534,87.746,30.97,0.868716704,88022.72,47.62,0.887,-0.078,-0.23,-0.09051020408,0.007959183673,0.02346938776,0,1,0,1,0,0,0,0,0,-5.128,135,0,1
249.039,249039,28.446,0.899,25.572954,28.464,0.927,0.006,-0.011,0,-0.004,0.536,87.782,30.99,0.868115865,87961.84,47.59,0.613,-0.113,-0.152,-0.06255102041,0.01153061224,0.01551020408,0,1,0,1,0,0,0,0,0,-5.19,135,0,1
249.539,249539,28.562,0.874,24.963188,28.58,0.753,0.009,-0.013,0,-0.003,0.538,87.836,31.02,0.867512065,87900.66,47.56,0.492,-0.191,-0.113,-0.05020408163,0.01948979592,0.01153061224,0,1,0,1,0,0,0,0,0,-5.254,135,0,1
250.039,250039,28.455,0.892,25.38186,28.468,0.94,0.007,-0.011,0,-0.003,0.536,87.872,31.04,0.866861584,87834.75,47.55,0.687,-0.113,-0.152,-0.07010204082,0.01153061224,0.01551020408,0,1,0,1,0,0,0,0,0,-5.316,135,0,1
250.539,250539,28.546,0.882,25.177572,28.587,0.887,0.009,-0.01,0,-0.004,0.536,87.908,31.06,0.866301505,87778,47.5,0.465,-0.191,-0.078,-0.04744897959,0.01948979592,0.007959183673,0,1,0,1,0,0,0,0,0,-5.381,135,0,1
251.042,251042,28.461,0.892,25.387212,28.466,0.937,0.007,-0.013,0,-0.003,0.536,87.926,31.07,0.865642734,87711.25,47.48,0.691,-0.078,-0.23,-0.07051020408,0.007959183673,0.02346938776,0,1,0,1,0,0,0,0,0,-5.447,135,0,1
251.542,251542,28.558,0.872,24.902576,28.559,0.814,0.007,-0.008,0,-0.003,0.538,87.98,31.1,0.865158549,87662.19,47.45,0.227,-0.113,-0.152,-0.02316326531,0.01153061224,0.01551020408,0,1,0,1,0,0,0,0,0,-5.509,135,0,1
252.072,252072,28.471,0.882,25.111422,28.42,0.937,0.007,-0.011,0,-0.003,0.536,88.016,31.12,0.864554059,87600.94,47.43,0.691,-0.113,-0.23,-0.07051020408,0.01153061224,0.02346938776,0,1,0,1,0,0,0,0,0,-5.574,135,0,1
252.572,252572,28.493,0.983,28.008619,28.517,0.882,0.009,-0.011,0,-0.003,0.536,88.034,31.13,0.864033851,87548.23,47.4,0.914,-0.152,-0.23,-0.09326530612,0.01551020408,0.02346938776,0,1,0,1,0,0,0,0,0,-5.636,135,0,1
253.075,253075,28.448,0.894,25.432512,28.455,0.932,0.007,-0.013,0,-0.003,0.534,88.07,31.15,0.863457982,87489.88,47.38,0.613,-0.152,-0.078,-0.06255102041,0.01551020408,0.007959183673,0,1,0,1,0,0,0,0,0,-5.7,135,0,1
253.575,253575,28.448,0.894,25.432512,28.455,0.932,0.007,-0.013,0,-0.003,0.534,88.07,31.15,0.863457982,87489.88,47.38,0.613,-0.152,-0.078,-0.06255102041,0.01551020408,0.007959183673,0,1,0,1,0,0,0,0,0,-5.762,135,0,1
254.075,254075,28.414,1.003,28.499242,28.436,0.94,0.01,-0.009,0,-0.003,0.534,88.088,31.16,0.862885369,87431.86,47.34,0.344,-0.152,-0.039,-0.03510204082,0.01551020408,0.003979591837,0,1,0,1,0,0,0,0,0,-5.827,135,0,1
254.575,254575,28.441,0.893,25.397813,28.449,0.944,0.007,-0.009,0,-0.003,0.536,88.142,31.19,0.862252159,87367.7,47.32,0.648,-0.078,-0.191,-0.06612244898,0.007959183673,0.01948979592,0,1,0,1,0,0,0,0,0,-5.889,135,0,1
255.075,255075,28.515,0.998,28.45797,28.534,0.779,0.009,-0.01,0,-0.003,0.536,88.178,31.21,0.861776067,87319.46,47.29,0.652,-0.078,-0.152,-0.06653061224,0.007959183673,0.01551020408,0,1,0,1,0,0,0,0,0,-5.954,135,0,1
255.575,255575,28.446,0.883,25.117818,28.451,0.948,0.007,-0.006,0,-0.003,0.534,88.196,31.22,0.861118974,87252.88,47.27,0.727,-0.113,-0.27,-0.07418367347,0.01153061224,0.02755102041,0,1,0,1,0,0,0,0,0,-6,135,0,0
256.075,256075,29.177,0.873,25.471521,29.564,0.027,0.009,-0.009,0,-0.003,0.536,88.232,31.24,0.860503923,87190.56,47.23,0.348,-0.23,-0.152,-0.03551020408,0.02346938776,0.01551020408,0,1,0,1,0,0,0,0,0,-6,135,0,0
256.575,256575,29.124,0.94,27.37656,29.53,0.027,0.009,-0.006,0,-0.003,0.534,88.268,31.26,0.859895781,87128.94,47.2,0.687,-0.078,-0.078,-0.07010204082,0.007959183673,0.007959183673,0,1,0,1,0,0,0,0,0,-6,135,0,0
257.075,257075,29.156,1.016,29.622496,29.575,0.027,0.009,-0.01,0,-0.001,0.536,88.304,31.28,0.859336788,87072.3,47.18,0.613,-0.078,-0.152,-0.06255102041,0.007959183673,0.01551020408,0,1,0,1,0,0,0,0,0,-6,135,0,0
257.575,257575,29.156,1.016,29.622496,29.575,0.027,0.009,-0.01,0,-0.001,0.536,88.304,31.28,0.859336788,87072.3,47.18,0.613,-0.078,-0.152,-0.06255102041,0.007959183673,0.01551020408,0,1,0,1,0,0,0,0,0,-6,135,0,0
258.075,258075,29.109,0.925,26.925825,29.536,0.025,0.009,-0.013,0,-0.003,0.536,88.34,31.3,0.858696373,87007.41,47.14,0.57,-0.078,-0.152,-0.05816326531,0.007959183673,0.01551020408,0,1,0,1,0,0,0,0,0,-6,135,0,0
258.575,258575,29.195,0.874,25.51643,29.576,0.024,0.007,-0.015,0,-0.003,0.538,88.376,31.32,0.858110535,86948.05,47.12,0.613,-0.078,-0.152,-0.06255102041,0.007959183673,0.01551020408,0,1,0,1,0,0,0,0,0,-6,135,0,0
259.075,259075,29.196,0.857,25.020972,29.531,0.024,0.007,-0.008,0,-0.004,0.536,88.412,31.34,0.857498939,86886.08,47.06,0.652,-0.078,-0.152,-0.06653061224,0.007959183673,0.01551020408,0,1,0,1,0,0,0,0,0,-6,135,0,0
259.575,259575,29.196,0.919,26.831124,29.576,0.024,0.007,-0.009,0,-0.003,0.536,88.43,31.35,0.856826252,86817.92,46.99,0.648,-0.152,-0.191,-0.06612244898,0.01551020408,0.01948979592,0,1,0,1,0,0,0,0,0,-6,135,0,0
260.082,260082,29.189,0.877,25.598753,29.575,0.023,0.007,-0.01,0,-0.003,0.536,88.466,31.37,0.856265384,86761.09,47.04,0.609,-0.078,-0.23,-0.06214285714,0.007959183673,0.02346938776,0,1,0,1,0,0,0,0,0,-6,135,0,0
260.582,260582,29.169,0.959,27.973071,29.581,0.023,0.009,-0.01,0,-0.003,0.538,88.502,31.39,0.855616482,86695.34,47,0.613,-0.113,-0.152,-0.06255102041,0.01153061224,0.01551020408,0,1,0,1,0,0,0,0,0,-6,135,0,0
261.082,261082,29.169,0.959,27.973071,29.581,0.023,0.009,-0.01,0,-0.003,0.538,88.502,31.39,0.855616482,86695.34,47,0.613,-0.113,-0.152,-0.06255102041,0.01153061224,0.01551020408,0,1,0,1,0,0,0,0,0,-6,135,0,0
261.582,261582,29.136,0.987,28.757232,29.511,0.023,0.006,-0.011,0,-0.003,0.534,88.556,31.42,0.855035579,86636.48,46.95,0.613,-0.113,-0.152,-0.06255102041,0.01153061224,0.01551020408,0,1,0,1,0,0,0,0,0,-6,135,0,0
262.082,262082,29.215,0.844,24.65746,29.59,0.024,0.007,-0.013,0,-0.003,0.536,88.592,31.44,0.854456156,86577.77,46.92,0.613,-0.078,-0.152,-0.06255102041,0.007959183673,0.01551020408,0,1,0,1,0,0,0,0,0,-6,135,0,0
262.582,262582,29.205,0.857,25.028685,29.525,0.024,0.007,-0.009,0,-0.003,0.536,88.628,31.46,0.853810412,86512.34,46.9,0.648,-0.113,-0.191,-0.06612244898,0.01153061224,0.01948979592,0,1,0,1,0,0,0,0,0,-6,135,0,0
263.082,263082,29.2,0.868,25.3456,29.585,0.024,0.007,-0.008,0,-0.001,0.536,88.664,31.48,0.853234148,86453.95,46.88,0.609,-0.113,-0.191,-0.06214285714,0.01153061224,0.01948979592,0,1,0,1,0,0,0,0,0,-6,135,0,0
263.59,263590,29.096,0.967,28.135832,29.52,0.023,0.007,-0.01,0,-0.003,0.536,88.7,31.5,0.852649593,86394.72,46.85,0.648,-0.113,-0.191,-0.06612244898,0.01153061224,0.01948979592,0,1,0,1,0,0,0,0,0,-6,135,0,0
264.09,264090,29.19,0.873,25.48287,29.577,0.025,0.007,-0.009,0,-0.004,0.536,88.736,31.52,0.852130866,86342.16,46.84,0.652,-0.078,-0.152,-0.06653061224,0.007959183673,0.01551020408,0,1,0,1,0,0,0,0,0,-6,135,0,0
264.59,264590,29.19,0.873,25.48287,29.577,0.025,0.007,-0.009,0,-0.004,0.536,88.736,31.52,0.852130866,86342.16,46.84,0.652,-0.078,-0.152,-0.06653061224,0.007959183673,0.01551020408,0,1,0,1,0,0,0,0,0,-6,135,0,0
265.09,265090,29.108,0.998,29.049784,29.585,0.024,0.009,-0.011,0,-0.004,0.538,88.772,31.54,0.851427486,86270.89,46.8,0.613,-0.078,-0.152,-0.06255102041,0.007959183673,0.01551020408,0,1,0,1,0,0,0,0,0,-6,135,0,0
265.59,265590,29.205,0.869,25.379145,29.586,0.024,0.007,-0.009,0,-0.003,0.536,88.808,31.56,0.850837898,86211.15,46.78,0.613,-0.039,-0.152,-0.06255102041,0.003979591837,0.01551020408,0,1,0,1,0,0,0,0,0,-6,135,0,0
266.09,266090,29.108,0.955,27.79814,29.549,0.023,0.007,-0.014,0,-0.003,0.536,88.844,31.58,0.850195411,86146.05,46.74,0.613,-0.078,-0.152,-0.06255102041,0.007959183673,0.01551020408,0,1,0,1,0,0,0,0,0,-6,135,0,0
266.59,266590,29.196,0.892,26.042832,29.579,0.024,0.009,-0.009,0,-0.003,0.536,88.862,31.59,0.849603356,86086.06,46.73,0.648,-0.039,-0.191,-0.06612244898,0.003979591837,0.01948979592,0,1,0,1,0,0,0,0,0,-6,135,0,0
267.093,267093,29.194,1.002,29.252388,29.495,0.025,0.007,-0.009,0,-0.003,0.536,88.898,31.61,0.848977942,86022.69,46.68,0.609,-0.039,-0.23,-0.06214285714,0.003979591837,0.02346938776,0,1,0,1,0,0,0,0,0,-6,135,0,0
267.593,267593,29.195,0.858,25.04931,29.574,0.024,0.009,-0.011,0,-0.001,0.538,88.934,31.63,0.848520109,85976.3,46.67,0.574,-0.039,-0.191,-0.05857142857,0.003979591837,0.01948979592,0,1,0,1,0,0,0,0,0,-6,135,0,0
268.093,268093,29.195,0.858,25.04931,29.574,0.024,0.009,-0.011,0,-0.001,0.538,88.934,31.63,0.848520109,85976.3,46.67,0.574,-0.039,-0.191,-0.05857142857,0.003979591837,0.01948979592,0,1,0,1,0,0,0,0,0,-6,135,0,0
268.593,268593,29.205,0.86,25.1163,29.584,0.024,0.009,-0.008,0,-0.004,0.536,88.97,31.65,0.847906242,85914.1,46.63,0.613,-0.078,-0.113,-0.06255102041,0.007959183673,0.01153061224,0,1,0,1,0,0,0,0,0,-6,135,0,0
269.093,269093,29.109,0.858,24.975522,29.522,0.024,0.007,-0.01,0,-0.003,0.536,88.988,31.66,0.847415643,85864.39,46.59,0.687,-0.113,-0.152,-0.07010204082,0.01153061224,0.01551020408,0,1,0,1,0,0,0,0,0,-6,135,0,0
269.593,269593,29.204,0.857,25.027828,29.583,0.025,0.009,-0.013,0,-0.004,0.538,89.024,31.68,0.846685418,85790.4,46.59,0.613,-0.113,-0.152,-0.06255102041,0.01153061224,0.01551020408,0,1,0,1,0,0,0,0,0,-6,135,0,0
270.093,270093,29.205,0.857,25.028685,29.54,0.024,0.009,-0.011,0,-0.003,0.538,89.06,31.7,0.846145966,85735.74,46.54,0.613,-0.078,-0.152,-0.06255102041,0.007959183673,0.01551020408,0,1,0,1,0,0,0,0,0,-6,135,0,0
270.593,270593,29.209,0.857,25.032113,29.584,0.023,0.009,-0.014,0,-0.004,0.536,89.096,31.72,0.845515223,85671.83,46.52,0.609,-0.078,-0.191,-0.06214285714,0.007959183673,0.01948979592,0,1,0,1,0,0,0,0,0,-6,135,0,0
271.093,271093,29.199,0.863,25.198737,29.583,0.025,0.007,-0.014,0,-0.003,0.538,89.132,31.74,0.844936886,85613.23,46.5,0.613,-0.113,-0.152,-0.06255102041,0.01153061224,0.01551020408,0,1,0,1,0,0,0,0,0,-6,135,0,0
271.593,271593,29.199,0.863,25.198737,29.583,0.025,0.007,-0.014,0,-0.003,0.538,89.132,31.74,0.844936886,85613.23,46.5,0.613,-0.113,-0.152,-0.06255102041,0.01153061224,0.01551020408,0,1,0,1,0,0,0,0,0,-6,135,0,0
272.093,272093,29.205,0.872,25.46676,29.581,0.025,0.007,-0.015,0,-0.004,0.538,89.168,31.76,0.84438036,85556.84,46.48,0.613,-0.078,-0.113,-0.06255102041,0.007959183673,0.01153061224,0,1,0,1,0,0,0,0,0,-6,135,0,0
272.593,272593,29.204,0.865,25.26146,29.584,0.025,0.007,-0.013,0,-0.003,0.538,89.204,31.78,0.84368527,85486.41,46.45,0.652,-0.113,-0.113,-0.06653061224,0.01153061224,0.01153061224,0,1,0,1,0,0,0,0,0,-6,135,0,0
273.093,273093,29.191,0.872,25.454552,29.575,0.025,0.006,-0.011,0,-0.003,0.534,89.24,31.8,0.843149075,85432.08,46.39,0.652,-0.078,-0.113,-0.06653061224,0.007959183673,0.01153061224,0,1,0,1,0,0,0,0,0,-6,135,0,0
273.593,273593,29.208,0.854,24.943632,29.585,0.024,0.007,-0.009,0,-0.001,0.536,89.276,31.82,0.842523267,85368.67,46.41,0.609,-0.113,-0.191,-0.06214285714,0.01153061224,0.01948979592,0,1,0,1,0,0,0,0,0,-6,135,0,0
274.105,274105,29.089,0.968,28.158152,29.52,0.024,0.006,-0.013,0,-0.003,0.54,89.312,31.84,0.841848507,85300.3,46.35,0.613,-0.078,-0.152,-0.06255102041,0.007959183673,0.01551020408,0,1,0,1,0,0,0,0,0,-6,135,0,0
274.605,274605,29.202,0.862,25.172124,29.584,0.024,0.009,-0.013,0,-0.001,0.536,89.348,31.86,0.84134942,85249.73,46.37,0.652,-0.039,-0.113,-0.06653061224,0.003979591837,0.01153061224,0,1,0,1,0,0,0,0,0,-6,135,0,0
275.105,275105,29.202,0.862,25.172124,29.584,0.024,0.009,-0.013,0,-0.001,0.536,89.348,31.86,0.84134942,85249.73,46.37,0.652,-0.039,-0.113,-0.06653061224,0.003979591837,0.01153061224,0,1,0,1,0,0,0,0,0,-6,135,0,0
275.605,275605,29.206,0.86,25.11716,29.581,0.025,0.007,-0.013,0,-0.004,0.536,89.384,31.88,0.840803158,85194.38,46.31,0.613,-0.113,-0.152,-0.06255102041,0.01153061224,0.01551020408,0,1,0,1,0,0,0,0,0,-6,135,0,0
276.105,276105,29.17,0.903,26.34051,29.575,0.025,0.009,-0.01,0,-0.004,0.536,89.42,31.9,0.840180508,85131.29,46.28,0.609,-0.078,-0.191,-0.06214285714,0.007959183673,0.01948979592,0,1,0,1,0,0,0,0,0,-6,135,0,0
276.605,276605,29.205,0.857,25.028685,29.583,0.025,0.009,-0.014,0,-0.003,0.538,89.438,31.91,0.839613718,85073.86,46.25,0.613,-0.113,-0.152,-0.06255102041,0.01153061224,0.01551020408,0,1,0,1,0,0,0,0,0,-6,135,0,0
277.105,277105,29.202,0.865,25.25973,29.579,0.027,0.006,-0.01,0,-0.004,0.538,89.492,31.94,0.839051962,85016.94,46.25,0.613,-0.078,-0.152,-0.06255102041,0.007959183673,0.01551020408,0,1,0,1,0,0,0,0,0,-6,135,0,0
277.607,277607,28.808,1.275,36.7302,29.376,0.027,0.007,-0.013,0,-0.004,0.534,89.51,31.95,0.838466617,84957.63,46.21,0.574,-0.113,-0.191,-0.05857142857,0.01153061224,0.01948979592,0,1,0,1,0,0,0,0,0,-6,135,0,0
278.107,278107,28.87,1.24,35.7988,29.385,0.025,0.007,-0.013,0,-0.003,0.536,89.546,31.97,0.837970787,84907.39,46.21,0.613,-0.113,-0.152,-0.06255102041,0.01153061224,0.01551020408,0,1,0,1,0,0,0,0,0,-6,135,0,0
278.607,278607,28.87,1.24,35.7988,29.385,0.025,0.007,-0.013,0,-0.003,0.536,89.546,31.97,0.837970787,84907.39,46.21,0.613,-0.113,-0.152,-0.06255102041,0.01153061224,0.01551020408,0,1,0,1,0,0,0,0,0,-6,135,0,0
279.107,279107,28.996,0.979,28.387084,29.471,0.024,0.009,-0.011,0,-0.003,0.538,89.582,31.99,0.837253195,84834.68,46.16,0.613,-0.078,-0.152,-0.06255102041,0.007959183673,0.01551020408,0,1,0,1,0,0,0,0,0,-6,135,0,0
279.607,279607,29.187,0.907,26.472609,29.573,0.024,0.007,-0.011,0,-0.003,0.536,89.618,32.01,0.836650975,84773.66,46.14,0.613,-0.113,-0.113,-0.06255102041,0.01153061224,0.01153061224,0,1,0,1,0,0,0,0,0,-6,135,0,0
280.107,280107,29.186,0.875,25.53775,29.571,0.024,0.007,-0.006,0,-0.004,0.538,89.654,32.03,0.836104416,84718.28,46.11,0.613,-0.078,-0.113,-0.06255102041,0.007959183673,0.01153061224,0,1,0,1,0,0,0,0,0,-6,135,0,0
280.607,280607,29.196,0.864,25.225344,29.58,0.024,0.007,-0.013,0,-0.003,0.534,89.69,32.05,0.835510585,84658.11,46.07,0.57,-0.078,-0.152,-0.05816326531,0.007959183673,0.01551020408,0,1,0,1,0,0,0,0,0,-6,135,0,0
281.11,281110,29.195,0.863,25.195285,29.576,0.024,0.006,-0.011,0,-0.003,0.538,89.726,32.07,0.834902936,84596.54,46.05,0.609,-0.113,-0.191,-0.06214285714,0.01153061224,0.01948979592,0,1,0,1,0,0,0,0,0,-6,135,0,0
281.61,281610,29.201,0.858,25.054458,29.531,0.024,0.007,-0.008,0,-0.003,0.536,89.762,32.09,0.834456156,84551.27,46.02,0.613,-0.078,-0.152,-0.06255102041,0.007959183673,0.01551020408,0,1,0,1,0,0,0,0,0,-6,135,0,0
282.11,282110,29.201,0.858,25.054458,29.531,0.024,0.007,-0.008,0,-0.003,0.536,89.762,32.09,0.834456156,84551.27,46.02,0.613,-0.078,-0.152,-0.06255102041,0.007959183673,0.01551020408,0,1,0,1,0,0,0,0,0,-6,135,0,0
282.61,282610,29.199,0.869,25.373931,29.574,0.024,0.009,-0.014,0,-0.003,0.54,89.798,32.11,0.833850086,84489.86,46.01,0.609,-0.078,-0.191,-0.06214285714,0.007959183673,0.01948979592,0,1,0,1,0,0,0,0,0,-6,135,0,0
283.11,283110,29.205,0.87,25.40835,29.535,0.025,0.007,-0.013,0,-0.003,0.54,89.834,32.13,0.833301554,84434.28,45.98,0.652,-0.113,-0.078,-0.06653061224,0.01153061224,0.007959183673,0,1,0,1,0,0,0,0,0,-6,135,0,0
283.61,283610,29.199,0.86,25.11114,29.575,0.024,0.007,-0.014,0,-0.004,0.54,89.87,32.15,0.832641599,84367.41,45.98,0.613,-0.113,-0.113,-0.06255102041,0.01153061224,0.01153061224,0,1,0,1,0,0,0,0,0,-6,135,0,0
284.11,284110,29.218,0.853,24.922954,29.559,0.023,0.007,-0.013,0,-0.004,0.536,89.906,32.17,0.832035332,84305.98,45.93,0.57,-0.113,-0.113,-0.05816326531,0.01153061224,0.01153061224,0,1,0,1,0,0,0,0,0,-6,135,0,0
284.613,284613,29.208,0.849,24.797592,29.583,0.023,0.007,-0.01,0,-0.005,0.536,89.942,32.19,0.83147851,84249.56,45.9,0.613,-0.113,-0.152,-0.06255102041,0.01153061224,0.01551020408,0,1,0,1,0,0,0,0,0,-6,135,0,0
285.113,285113,29.114,0.865,25.18361,29.519,0.024,0.009,-0.011,0,-0.001,0.536,89.96,32.2,0.831016235,84202.72,45.89,0.57,-0.078,-0.152,-0.05816326531,0.007959183673,0.01551020408,0,1,0,1,0,0,0,0,0,-6,135,0,0
285.613,285613,29.114,0.865,25.18361,29.519,0.024,0.009,-0.011,0,-0.001,0.536,89.96,32.2,0.831016235,84202.72,45.89,0.57,-0.078,-0.152,-0.05816326531,0.007959183673,0.01551020408,0,1,0,1,0,0,0,0,0,-6,135,0,0
286.113,286113,29.202,0.864,25.230528,29.58,0.025,0.007,-0.013,0,-0.003,0.538,90.014,32.23,0.830383025,84138.56,45.85,0.609,-0.078,-0.191,-0.06214285714,0.007959183673,0.01948979592,0,1,0,1,0,0,0,0,0,-6,135,0,0
286.613,286613,29.097,0.874,25.430778,29.529,0.024,0.007,-0.01,0,-0.004,0.536,90.032,32.24,0.829798964,84079.38,45.83,0.609,-0.078,-0.191,-0.06214285714,0.007959183673,0.01948979592,0,1,0,1,0,0,0,0,0,-6,135,0,0
287.113,287113,29.17,0.882,25.72794,29.558,0.024,0.007,-0.015,0,-0.001,0.538,90.068,32.26,0.829230002,84021.73,45.79,0.652,-0.113,-0.152,-0.06653061224,0.01153061224,0.01551020408,0,1,0,1,0,0,0,0,0,-6,135,0,0
287.613,287613,29.194,0.864,25.223616,29.521,0.025,0.007,-0.016,0,-0.001,0.536,90.104,32.28,0.828674562,83965.45,45.76,0.613,-0.078,-0.152,-0.06255102041,0.007959183673,0.01551020408,0,1,0,1,0,0,0,0,0,-6,135,0,0
288.117,288117,29.206,0.85,24.8251,29.577,0.025,0.009,-0.01,0,-0.003,0.54,90.158,32.31,0.82810037,83907.27,45.76,0.613,-0.078,-0.113,-0.06255102041,0.007959183673,0.01153061224,0,1,0,1,0,0,0,0,0,-6,135,0,0
288.617,288617,29.199,0.859,25.081941,29.528,0.024,0.007,-0.014,0,-0.001,0.538,90.194,32.33,0.827553417,83851.85,45.72,0.574,-0.078,-0.23,-0.05857142857,0.007959183673,0.02346938776,0,1,0,1,0,0,0,0,0,-6,135,0,0
289.123,289123,29.196,0.859,25.079364,29.539,0.025,0.007,-0.013,0,-0.001,0.538,90.212,32.34,0.827050382,83800.88,45.71,0.613,-0.078,-0.152,-0.06255102041,0.007959183673,0.01551020408,0,1,0,1,0,0,0,0,0,-6,135,0,0
289.623,289623,29.196,0.859,25.079364,29.539,0.025,0.007,-0.013,0,-0.001,0.538,90.212,32.34,0.827050382,83800.88,45.71,0.613,-0.078,-0.152,-0.06255102041,0.007959183673,0.01551020408,0,1,0,1,0,0,0,0,0,-6,135,0,0
290.123,290123,29.161,0.962,28.052882,29.58,0.025,0.009,-0.011,0,-0.003,0.538,90.248,32.36,0.826508463,83745.97,45.68,0.57,-0.039,-0.152,-0.05816326531,0.003979591837,0.01551020408,0,1,0,1,0,0,0,0,0,-6,135,0,0
290.623,290623,29.095,0.974,28.33853,29.56,0.027,0.007,-0.011,0,-0.003,0.538,90.284,32.38,0.826035924,83698.09,45.67,0.574,-0.078,-0.191,-0.05857142857,0.007959183673,0.01948979592,0,1,0,1,0,0,0,0,0,-6,135,0,0
291.123,291123,29.176,0.974,28.417424,29.57,0.025,0.007,-0.011,0,-0.004,0.538,90.302,32.39,0.82544456,83638.17,45.64,0.57,-0.039,-0.152,-0.05816326531,0.003979591837,0.01551020408,0,1,0,1,0,0,0,0,0,-6,135,0,0
291.623,291623,29.199,0.865,25.257135,29.577,0.024,0.007,-0.013,0,-0.004,0.538,90.356,32.42,0.824890797,83582.06,45.6,0.652,-0.039,-0.152,-0.06653061224,0.003979591837,0.01551020408,0,1,0,1,0,0,0,0,0,-6,135,0,0
292.123,292123,29.076,0.983,28.581708,29.545,0.027,0.007,-0.009,0,-0.003,0.538,90.392,32.44,0.824324994,83524.73,45.58,0.652,-0.039,-0.152,-0.06653061224,0.003979591837,0.01551020408,0,1,0,1,0,0,0,0,0,-6,135,0,0
292.626,292626,29.196,0.859,25.079364,29.554,0.025,0.007,-0.01,0,-0.003,0.536,90.428,32.46,0.823709943,83462.41,45.55,0.613,-0.113,-0.152,-0.06255102041,0.01153061224,0.01551020408,0,1,0,1,0,0,0,0,0,-6,135,0,0
293.126,293126,29.196,0.859,25.079364,29.554,0.025,0.007,-0.01,0,-0.003,0.536,90.428,32.46,0.823709943,83462.41,45.55,0.613,-0.113,-0.152,-0.06255102041,0.01153061224,0.01551020408,0,1,0,1,0,0,0,0,0,-6,135,0,0
293.626,293626,29.116,1.004,29.232464,29.524,0.024,0.007,-0.013,0,-0.003,0.538,90.446,32.47,0.823074759,83398.05,45.53,0.613,-0.039,-0.152,-0.06255102041,0.003979591837,0.01551020408,0,1,0,1,0,0,0,0,0,-6,135,0,0
294.126,294126,29.196,0.862,25.166952,29.573,0.024,0.007,-0.014,0,-0.003,0.536,90.5,32.5,0.822591562,83349.09,45.5,0.613,-0.078,-0.113,-0.06255102041,0.007959183673,0.01153061224,0,1,0,1,0,0,0,0,0,-6,135,0,0
294.626,294626,29.126,0.925,26.94155,29.57,0.024,0.009,-0.013,0,-0.001,0.538,90.518,32.51,0.822032568,83292.45,45.48,0.609,-0.113,-0.191,-0.06214285714,0.01153061224,0.01948979592,0,1,0,1,0,0,0,0,0,-6,135,0,0
